time,ax,ay,az,atotal
0.012182950973510742,-0.09,-0.06,0.45,0.46
0.013264894485473633,-0.07,-0.08,0.44,0.45
0.023247957229614258,-0.07,-0.12,0.43,0.45
0.03323078155517578,-0.09,-0.16,0.31,0.36
0.043519020080566406,-0.11,-0.14,0.22,0.28
0.053526878356933594,-0.08,-0.09,0.18,0.21
0.06357383728027344,-0.09,-0.02,0.17,0.19
0.0736229419708252,-0.08,0.01,0.18,0.19
0.08339691162109375,-0.06,0.03,0.15,0.16
0.09339690208435059,-0.05,0.05,0.14,0.15
0.10473990440368652,-0.02,0.05,0.17,0.17
0.11469411849975586,-0.01,0.03,0.15,0.15
0.12467694282531738,0.0,0.01,0.09,0.09
0.1344618797302246,-0.02,0.0,0.03,0.03
0.14452505111694336,-0.1,-0.02,0.03,0.1
0.1547107696533203,-0.14,-0.05,0.07,0.16
0.16425609588623047,-0.14,-0.09,0.11,0.19
0.17395305633544922,-0.09,-0.08,0.09,0.15
0.18381190299987793,-0.04,-0.07,0.11,0.13
0.19383907318115234,-0.02,-0.06,0.09,0.11
0.2040400505065918,0.01,-0.04,0.02,0.04
0.21418285369873047,0.01,0.01,-0.06,0.06
0.2241978645324707,0.01,0.03,-0.09,0.09
0.23401308059692383,0.0,0.02,-0.05,0.05
0.24512910842895508,0.01,0.01,-0.01,0.01
0.25510096549987793,0.02,-0.02,0.05,0.05
0.2657318115234375,0.01,-0.04,0.16,0.16
0.2744629383087158,0.03,-0.07,0.25,0.26
0.2844538688659668,0.06,-0.09,0.29,0.3
0.29462194442749023,0.06,-0.08,0.27,0.28
0.3047759532928467,0.04,-0.04,0.26,0.26
0.3152780532836914,0.01,-0.01,0.25,0.25
0.3249239921569824,-0.01,0.02,0.23,0.23
0.335050106048584,-0.03,0.02,0.2,0.2
0.3451039791107178,-0.02,0.04,0.16,0.16
0.35513997077941895,-0.02,0.07,0.1,0.12
0.3652820587158203,-0.04,0.08,0.04,0.09
0.3754458427429199,-0.06,0.05,0.05,0.09
0.38517093658447266,-0.06,0.04,0.07,0.1
0.395474910736084,-0.04,0.05,0.07,0.09
0.40538501739501953,-0.02,0.05,0.07,0.08
0.4156489372253418,-0.02,0.02,0.06,0.06
0.42566585540771484,-0.01,-0.01,0.05,0.05
0.43557095527648926,0.02,-0.03,0.07,0.07
0.446469783782959,0.04,-0.01,0.09,0.09
0.45651698112487793,0.05,0.01,0.1,0.11
0.4667959213256836,0.06,0.01,0.08,0.1
0.47681593894958496,0.04,0.02,0.08,0.09
0.4865748882293701,0.02,0.04,0.05,0.06
0.4966278076171875,-0.01,0.05,0.06,0.07
0.5068318843841553,-0.02,0.03,0.12,0.12
0.5170009136199951,0.01,0.0,0.15,0.15
0.5268468856811523,0.04,0.03,0.14,0.14
0.5369369983673096,0.04,0.08,0.11,0.14
0.5469999313354492,0.06,0.1,0.06,0.13
0.5582928657531738,0.05,0.11,0.04,0.12
0.5672159194946289,0.02,0.1,0.1,0.14
0.5775289535522461,-0.01,0.06,0.12,0.13
0.587094783782959,-0.01,0.03,0.12,0.12
0.597376823425293,-0.02,0.01,0.1,0.1
0.6073009967803955,-0.04,0.05,0.1,0.11
0.6174778938293457,-0.01,0.07,0.11,0.13
0.6274127960205078,0.02,0.08,0.16,0.18
0.637488842010498,0.04,0.08,0.15,0.17
0.647528886795044,0.05,0.06,0.09,0.11
0.65777587890625,0.01,0.06,0.03,0.06
0.6679620742797852,-0.03,0.07,-0.03,0.08
0.6783609390258789,-0.06,0.07,-0.01,0.09
0.6879119873046875,-0.09,0.06,0.03,0.11
0.6982598304748535,-0.1,0.05,0.04,0.11
0.7083439826965332,-0.09,0.04,0.09,0.13
0.7175118923187256,-0.11,0.04,0.11,0.16
0.7281219959259033,-0.1,0.03,0.1,0.14
0.7381620407104492,-0.08,0.05,0.09,0.13
0.7484488487243652,-0.1,0.05,0.1,0.15
0.7577810287475586,-0.1,0.05,0.15,0.18
0.7675929069519043,-0.08,0.02,0.21,0.22
0.7783889770507812,-0.05,-0.01,0.26,0.26
0.7884788513183594,-0.03,-0.01,0.24,0.24
0.7986109256744385,-0.03,-0.01,0.24,0.24
0.8086590766906738,-0.02,0.0,0.22,0.22
0.8179597854614258,-0.03,0.01,0.18,0.18
0.8282239437103271,-0.05,0.0,0.2,0.2
0.8382389545440674,-0.05,-0.02,0.29,0.29
0.8488929271697998,-0.02,-0.03,0.33,0.33
0.8588719367980957,-0.03,0.0,0.31,0.31
0.8689069747924805,-0.04,0.01,0.26,0.26
0.8789558410644531,-0.03,0.02,0.17,0.17
0.8894548416137695,-0.01,0.03,0.05,0.05
0.8991899490356445,-0.02,0.05,-0.11,0.12
0.9091877937316895,-0.06,0.08,-0.38,0.39
0.9251718521118164,-0.21,0.15,-0.68,0.72
0.9295058250427246,-0.26,0.07,0.43,0.5
0.9397010803222656,-0.16,-0.04,1.24,1.25
0.949894905090332,-0.11,-0.14,1.54,1.55
0.9594788551330566,0.01,-0.29,1.39,1.41
0.9695768356323242,-0.05,-0.32,0.96,1.01
0.9796199798583984,-0.22,-0.3,0.36,0.51
0.9896109104156494,-0.22,-0.23,-0.15,0.35
1.004194974899292,-0.13,-0.11,-0.36,0.39
1.0094289779663086,-0.07,0.08,-0.19,0.21
1.0192680358886719,0.03,0.18,0.0,0.18
1.0292789936065674,0.09,0.16,0.08,0.2
1.0405330657958984,0.15,0.09,0.04,0.17
1.0497279167175293,0.15,0.06,-0.1,0.19
1.0600309371948242,0.09,0.11,-0.3,0.33
1.0701627731323242,-0.03,0.12,-0.48,0.49
1.0799899101257324,-0.13,0.07,-0.52,0.54
1.090385913848877,-0.18,0.0,-0.37,0.41
1.1002941131591797,-0.27,-0.14,-0.04,0.3
1.1102418899536133,-0.59,-0.33,0.12,0.68
1.1203389167785645,-1.0,-0.57,0.24,1.17
1.130453109741211,-1.01,-0.72,0.29,1.27
1.1407508850097656,-0.93,-0.73,0.24,1.2
1.1504697799682617,-0.78,-0.58,0.02,0.97
1.1605849266052246,-0.56,-0.33,-0.13,0.66
1.170630931854248,-0.42,-0.32,-0.13,0.54
1.1805698871612549,-0.22,-0.1,-0.41,0.47
1.1911349296569824,0.02,0.3,-0.48,0.56
1.2006969451904297,0.0,0.31,-0.46,0.55
1.2108049392700195,0.1,0.1,-0.45,0.47
1.2208890914916992,0.24,0.06,-0.2,0.31
1.230907917022705,0.34,0.15,0.1,0.38
1.2411789894104004,0.45,0.25,0.33,0.61
1.25108003616333,0.57,0.3,0.52,0.82
1.2611029148101807,0.53,0.29,0.63,0.87
1.271251916885376,0.47,0.22,0.57,0.77
1.281156063079834,0.39,0.16,0.42,0.59
1.291632890701294,0.28,0.18,0.27,0.42
1.301414966583252,0.26,0.17,0.21,0.37
1.3115887641906738,0.3,0.08,0.23,0.38
1.3215570449829102,0.29,0.03,0.3,0.41
1.331831932067871,0.22,0.01,0.32,0.38
1.3415560722351074,0.23,0.04,0.34,0.41
1.3515629768371582,0.22,0.04,0.32,0.39
1.3616647720336914,0.2,0.01,0.33,0.38
1.3717827796936035,0.17,-0.07,0.24,0.3
1.381824016571045,0.1,-0.09,0.2,0.24
1.391875982284546,0.05,-0.08,0.25,0.26
1.4022340774536133,0.02,-0.1,0.27,0.28
1.412187099456787,0.0,-0.11,0.17,0.2
1.4218220710754395,-0.05,-0.09,0.0,0.1
1.4316678047180176,-0.08,-0.06,-0.11,0.14
1.4414610862731934,-0.06,-0.05,-0.15,0.16
1.4515249729156494,0.0,-0.03,-0.11,0.11
1.462480068206787,0.0,-0.02,-0.07,0.07
1.4724860191345215,-0.04,-0.05,-0.02,0.06
1.4826641082763672,-0.06,-0.05,0.06,0.09
1.4925918579101562,-0.06,-0.06,0.1,0.13
1.503037929534912,-0.03,-0.06,0.04,0.07
1.5127499103546143,0.02,-0.05,0.04,0.06
1.5228219032287598,0.11,-0.1,0.13,0.19
1.5330259799957275,0.16,-0.13,0.18,0.27
1.5428190231323242,0.1,-0.12,0.31,0.34
1.55330491065979,0.15,-0.1,0.34,0.38
1.5630309581756592,0.17,-0.07,0.29,0.34
1.5742149353027344,0.11,0.0,0.25,0.27
1.583582878112793,0.04,0.04,0.16,0.16
1.593224048614502,0.06,0.05,-0.06,0.09
1.6026709079742432,0.03,0.08,-0.23,0.24
1.6135668754577637,0.14,0.01,-0.21,0.25
1.6224970817565918,0.21,0.03,-0.1,0.23
1.6335678100585938,0.09,0.16,-0.01,0.18
1.643286943435669,-0.01,0.22,-0.06,0.22
1.6533849239349365,-0.05,0.17,-0.13,0.21
1.6636381149291992,-0.08,0.1,-0.14,0.18
1.6734910011291504,-0.04,0.0,-0.11,0.11
1.683722972869873,0.02,-0.02,0.01,0.03
1.6935091018676758,0.04,0.01,0.15,0.15
1.7040810585021973,0.07,0.0,0.23,0.24
1.7137508392333984,0.0,0.0,0.26,0.26
1.7237200736999512,-0.14,0.03,0.22,0.26
1.7340960502624512,-0.21,0.01,0.11,0.23
1.743992805480957,-0.24,-0.02,0.01,0.24
1.7544150352478027,-0.22,-0.08,-0.03,0.23
1.7643249034881592,-0.19,-0.14,0.01,0.23
1.774087905883789,-0.16,-0.2,0.1,0.27
1.7843348979949951,-0.14,-0.23,0.18,0.32
1.7941439151763916,-0.17,-0.19,0.26,0.36
1.8045449256896973,-0.18,-0.15,0.31,0.38
1.8147268295288086,-0.12,-0.13,0.31,0.35
1.8243517875671387,-0.06,-0.12,0.36,0.38
1.8344669342041016,-0.07,-0.11,0.46,0.47
1.8444759845733643,-0.09,-0.1,0.51,0.52
1.8545818328857422,-0.11,-0.1,0.53,0.55
1.8649640083312988,-0.16,-0.12,0.52,0.55
1.8748598098754883,-0.17,-0.08,0.4,0.44
1.88490891456604,-0.21,-0.06,0.31,0.37
1.8948040008544922,-0.24,-0.06,0.22,0.33
1.9048469066619873,-0.23,-0.02,0.08,0.24
1.9152929782867432,-0.22,0.0,-0.03,0.22
1.9250588417053223,-0.22,0.01,-0.06,0.22
1.935135841369629,-0.19,0.05,-0.1,0.22
1.945375919342041,-0.2,0.05,-0.15,0.25
1.9556307792663574,-0.2,0.04,-0.45,0.49
1.9648408889770508,-0.1,0.02,-0.49,0.5
1.977262020111084,-0.06,0.05,0.09,0.11
1.9861969947814941,-0.04,0.09,0.18,0.2
1.995448112487793,-0.09,0.07,0.25,0.27
2.0055899620056152,0.0,0.05,0.44,0.44
2.0156898498535156,0.06,-0.01,0.36,0.36
2.026005983352661,0.09,-0.09,0.21,0.24
2.035799026489258,0.06,-0.1,0.2,0.23
2.0456838607788086,0.08,-0.05,0.19,0.21
2.0709469318389893,0.15,-0.02,0.21,0.25
2.0714898109436035,0.16,0.01,0.18,0.24
2.075533866882324,0.1,0.04,0.12,0.16
2.085278034210205,0.07,0.03,0.08,0.11
2.095505952835083,0.08,0.02,0.08,0.11
2.105794906616211,0.08,0.02,0.12,0.14
2.1163330078125,0.1,0.03,0.13,0.16
2.126554012298584,0.08,0.01,0.15,0.17
2.1360878944396973,0.03,0.0,0.21,0.21
2.1463370323181152,-0.01,0.03,0.23,0.23
2.1563189029693604,-0.01,0.04,0.23,0.23
2.166388988494873,-0.02,0.01,0.24,0.24
2.176826000213623,-0.04,0.0,0.23,0.23
2.1865057945251465,-0.04,-0.01,0.23,0.23
2.196535110473633,-0.02,-0.01,0.17,0.17
2.2066409587860107,-0.03,-0.02,0.14,0.14
2.217050075531006,-0.05,0.01,0.14,0.14
2.2270379066467285,-0.05,0.01,0.14,0.14
2.236121892929077,-0.04,-0.02,0.13,0.13
2.246098041534424,-0.02,-0.01,0.17,0.17
2.2562217712402344,-0.05,0.01,0.22,0.22
2.2662439346313477,-0.07,0.03,0.18,0.19
2.2766780853271484,-0.07,0.02,0.07,0.1
2.2863478660583496,-0.06,-0.02,-0.02,0.06
2.296221971511841,-0.07,-0.02,-0.04,0.08
2.3063278198242188,-0.09,0.01,-0.05,0.1
2.316659927368164,-0.09,0.02,-0.04,0.1
2.3268299102783203,-0.07,0.02,0.02,0.07
2.336582899093628,-0.04,0.03,0.07,0.08
2.346658945083618,-0.06,0.04,0.08,0.1
2.356804847717285,-0.09,0.02,0.04,0.1
2.367050886154175,-0.13,0.01,-0.04,0.13
2.3770639896392822,-0.21,0.0,-0.09,0.22
2.387086868286133,-0.2,-0.01,-0.16,0.25
2.3969359397888184,-0.23,-0.02,-0.15,0.27
2.4073710441589355,-0.19,0.01,-0.13,0.23
2.417264938354492,-0.07,0.12,-0.04,0.14
2.427730083465576,-0.03,0.2,-0.04,0.2
2.437443971633911,-0.03,0.12,-0.09,0.15
2.4475018978118896,0.03,0.09,0.02,0.09
2.4574429988861084,0.02,0.09,0.09,0.12
2.467519998550415,-0.02,0.05,0.19,0.19
2.4777579307556152,-0.07,0.04,0.29,0.3
2.48787784576416,-0.08,0.02,0.19,0.2
2.497520923614502,-0.02,0.05,-0.02,0.05
2.507673978805542,0.01,0.09,-0.13,0.15
2.5177788734436035,-0.03,0.08,-0.18,0.19
2.5277957916259766,-0.02,0.0,-0.06,0.06
2.5381898880004883,0.03,-0.06,0.06,0.09
2.548083782196045,0.07,-0.12,0.19,0.23
2.5579538345336914,0.09,-0.15,0.3,0.34
2.5679478645324707,0.09,-0.13,0.32,0.35
2.5781688690185547,0.08,-0.12,0.29,0.32
2.5892868041992188,0.05,-0.07,0.26,0.27
2.598580837249756,0.04,-0.03,0.26,0.26
2.608689785003662,0.04,-0.03,0.3,0.3
2.618652820587158,0.04,-0.05,0.35,0.35
2.6285500526428223,-0.03,-0.07,0.4,0.4
2.63930606842041,-0.12,-0.08,0.33,0.36
2.6487619876861572,-0.12,-0.07,0.18,0.22
2.658759117126465,-0.09,-0.03,0.05,0.1
2.668729782104492,-0.09,0.02,-0.02,0.09
2.6790409088134766,-0.08,0.04,-0.01,0.09
2.689199924468994,-0.07,0.04,0.02,0.08
2.698862075805664,-0.1,0.03,0.04,0.11
2.709105968475342,-0.12,0.04,-0.02,0.12
2.7192089557647705,-0.14,0.03,-0.15,0.2
2.729207992553711,-0.15,-0.01,-0.23,0.27
2.7393178939819336,-0.14,-0.04,-0.16,0.21
2.74937105178833,-0.11,-0.01,-0.04,0.11
2.7595009803771973,-0.06,0.01,0.04,0.07
2.7694430351257324,-0.03,0.03,0.16,0.16
2.7795519828796387,-0.02,0.0,0.2,0.2
2.789501905441284,-0.06,-0.07,0.13,0.15
2.799484968185425,-0.07,-0.13,0.11,0.18
2.8098578453063965,-0.06,-0.09,0.19,0.21
2.81978178024292,-0.09,-0.05,0.18,0.2
2.8297979831695557,-0.08,-0.05,0.16,0.18
2.8398518562316895,-0.08,-0.05,0.21,0.23
2.8502960205078125,-0.03,-0.04,0.27,0.27
2.8600778579711914,-0.02,-0.04,0.24,0.24
2.8699951171875,0.04,0.01,0.19,0.19
2.8801589012145996,0.08,0.04,0.12,0.14
2.8900399208068848,0.08,0.02,0.01,0.08
2.900538921356201,0.1,0.02,0.01,0.1
2.9102840423583984,0.14,0.03,0.11,0.18
2.920499801635742,0.1,-0.03,0.21,0.23
2.93044376373291,0.03,-0.15,0.24,0.28
2.940402030944824,0.18,0.04,0.33,0.37
2.95100998878479,0.14,0.27,0.45,0.54
2.969390869140625,-0.02,0.05,0.38,0.38
2.9704017639160156,-0.04,-0.21,0.25,0.32
2.9810538291931152,-0.01,-0.15,0.18,0.23
2.990701913833618,-0.05,0.01,0.08,0.09
3.0010359287261963,-0.02,0.09,-0.01,0.09
3.0108768939971924,0.03,0.14,0.01,0.14
3.020885944366455,0.02,0.14,0.09,0.16
3.030998945236206,-0.01,0.1,0.11,0.14
3.0410449504852295,-0.05,0.08,0.08,0.12
3.0521697998046875,-0.09,0.05,0.07,0.12
3.0619730949401855,-0.11,0.01,0.1,0.14
3.0720977783203125,-0.12,-0.02,0.16,0.2
3.0820119380950928,-0.08,-0.04,0.24,0.25
3.0920557975769043,-0.07,-0.05,0.24,0.25
3.101956844329834,-0.08,-0.03,-0.13,0.15
3.1122899055480957,0.1,0.02,-0.79,0.79
3.1251940727233887,0.11,0.05,-0.11,0.16
3.1321330070495605,0.0,0.07,0.07,0.09
3.142420768737793,0.08,-0.01,0.34,0.34
3.1539158821105957,0.08,-0.06,0.58,0.58
3.16251277923584,0.1,-0.04,0.71,0.71
3.1726560592651367,0.14,-0.09,0.66,0.68
3.1824259757995605,0.15,-0.07,0.42,0.45
3.1973819732666016,0.19,0.02,0.08,0.2
3.2302398681640625,0.21,0.1,0.0,0.23
3.2326009273529053,0.12,0.16,-0.02,0.2
3.2341229915618896,0.1,0.2,-0.06,0.23
3.23974609375,0.12,0.2,-0.07,0.24
3.2423079013824463,0.12,0.19,-0.11,0.25
3.257633924484253,0.13,0.19,-0.17,0.28
3.2630600929260254,0.16,0.22,-0.22,0.34
3.2729411125183105,0.17,0.27,-0.13,0.34
3.2830588817596436,0.2,0.16,0.01,0.25
3.2933077812194824,0.19,0.13,0.04,0.23
3.3279690742492676,0.2,0.02,-0.21,0.29
3.329543113708496,0.26,-0.21,-0.57,0.66
3.3306829929351807,0.6,-0.26,-0.65,0.92
3.339411973953247,0.73,-0.24,-0.81,1.11
3.342611789703369,0.6,-0.28,-1.03,1.22
3.3560259342193604,0.46,-0.2,-0.69,0.85
3.3629817962646484,0.3,-0.25,-0.57,0.69
3.373866081237793,0.19,-0.84,1.77,1.96
3.3837108612060547,0.33,-0.99,0.18,1.05
3.393868923187256,0.67,-1.06,0.15,1.26
3.423168897628784,0.72,-1.13,0.09,1.34
3.424743890762329,0.69,-1.24,0.14,1.42
3.4258718490600586,0.98,-1.76,0.21,2.02
3.4410839080810547,1.51,-1.82,0.25,2.37
3.4435529708862305,1.79,-1.5,0.05,2.33
3.4584579467773438,1.83,-1.17,-0.25,2.18
3.463589906692505,1.79,-0.59,-0.39,1.92
3.4741079807281494,1.72,-0.22,-0.46,1.79
3.4844470024108887,1.73,-0.38,-0.91,1.99
3.4944348335266113,1.59,-0.58,-1.41,2.2
3.5253028869628906,1.02,-0.52,-1.78,2.11
3.526857852935791,0.49,-0.29,-1.84,1.92
3.527985095977783,-0.63,0.08,-1.2,1.35
3.53987979888916,-2.84,0.83,0.24,2.96
3.5438218116760254,-4.19,1.91,0.01,4.6
3.555903911590576,-3.2,2.43,-2.8,4.89
3.5647099018096924,-1.71,2.64,-5.11,6.0
3.5750060081481934,-1.64,2.96,-5.42,6.38
3.585402011871338,-2.19,2.69,-5.45,6.46
3.5949130058288574,-1.81,0.69,-4.82,5.19
3.626739025115967,-0.39,-1.41,-3.14,3.46
3.628999948501587,0.4,-2.25,-2.87,3.66
3.630354881286621,-0.03,-2.18,-3.26,3.92
3.639352798461914,-0.5,-1.57,-3.9,4.23
3.6446800231933594,-0.41,-1.28,-4.14,4.35
3.655669927597046,0.16,-1.18,-4.1,4.26
3.66524600982666,0.75,-1.25,-4.26,4.5
3.6751480102539062,1.22,-1.82,-4.59,5.08
3.685734987258911,1.41,-2.55,-4.91,5.7
3.6956710815429688,1.18,-3.09,-5.17,6.13
3.727320909500122,0.66,-3.47,-5.47,6.51
3.7295219898223877,0.11,-3.84,-5.62,6.8
3.731146812438965,-0.33,-4.21,-5.51,6.94
3.7393839359283447,-0.3,-4.39,-5.05,6.69
3.7451889514923096,0.01,-4.35,-4.09,5.97
3.7554168701171875,0.37,-4.31,-2.96,5.24
3.765666961669922,0.91,-4.32,-1.98,4.83
3.7757821083068848,1.9,-4.53,-1.08,5.02
3.786600112915039,2.8,-4.71,-0.17,5.48
3.796189785003662,3.1,-4.7,0.55,5.65
3.8294429779052734,2.69,-4.53,0.57,5.29
3.83161997795105,1.7,-4.3,-0.09,4.62
3.8333230018615723,1.08,-4.33,-0.81,4.53
3.839556932449341,0.83,-4.37,-1.29,4.63
3.845510959625244,1.17,-4.26,-1.37,4.62
3.856186866760254,2.08,-4.04,-1.1,4.67
3.8664159774780273,3.23,-3.86,-0.59,5.06
3.8764939308166504,4.32,-3.87,0.08,5.8
3.887385845184326,4.88,-3.75,0.44,6.17
3.8968710899353027,4.95,-3.53,0.7,6.11
3.928133010864258,4.85,-3.43,1.02,6.02
3.929655075073242,4.7,-3.51,1.3,6.0
3.930757999420166,4.51,-3.49,1.43,5.87
3.939444065093994,4.48,-3.31,1.59,5.79
3.9460289478302,4.65,-3.01,1.75,5.8
3.956554889678955,5.05,-2.98,2.11,6.23
3.966986894607544,5.38,-2.67,2.68,6.57
3.9769530296325684,5.63,-2.36,3.13,6.86
3.9873709678649902,5.91,-1.99,3.57,7.18
3.997694969177246,5.96,-1.44,3.98,7.3
4.030777931213379,6.0,-0.9,4.16,7.35
4.032319068908691,5.98,-0.45,4.14,7.28
4.033427000045776,5.77,0.0,4.08,7.06
4.039546966552734,5.45,0.51,3.87,6.7
4.047573089599609,5.14,1.1,3.73,6.44
4.057102918624878,4.9,1.51,3.62,6.27
4.067576885223389,4.79,2.03,3.4,6.21
4.077801942825317,4.83,2.45,3.25,6.31
4.087876796722412,4.64,2.81,3.29,6.34
4.098273992538452,4.27,3.1,3.23,6.18
4.132319927215576,3.82,3.3,3.1,5.92
4.133843898773193,3.38,3.49,2.97,5.69
4.135008811950684,2.85,3.62,2.93,5.46
4.139636993408203,2.4,3.67,2.91,5.26
4.155694007873535,2.04,3.74,2.89,5.14
4.157705783843994,1.72,3.85,2.88,5.1
4.171106815338135,1.51,3.93,2.88,5.1
4.178185939788818,1.38,4.07,2.9,5.18
4.1883649826049805,1.27,4.2,2.87,5.24
4.198694944381714,1.16,4.37,2.87,5.35
4.231439113616943,1.1,4.52,2.92,5.49
4.232760906219482,1.15,4.65,2.99,5.64
4.23384690284729,1.12,4.84,3.06,5.83
4.239720821380615,1.11,5.12,3.07,6.07
4.248244762420654,1.23,5.42,3.04,6.33
4.25826096534729,1.39,5.74,2.98,6.61
4.269064903259277,1.61,6.04,2.9,6.89
4.278835773468018,1.9,6.23,2.79,7.08
4.289079904556274,2.14,6.39,2.71,7.26
4.299207925796509,2.39,6.51,2.67,7.43
4.334414958953857,2.55,6.6,2.68,7.56
4.33595609664917,2.66,6.72,2.69,7.71
4.3370161056518555,2.71,6.86,2.69,7.85
4.339868068695068,2.67,7.03,2.75,8.0
4.34845495223999,2.58,7.15,2.78,8.09
4.359470844268799,2.69,7.19,2.84,8.18
4.3690149784088135,2.94,7.15,2.92,8.26
4.379333019256592,3.28,7.19,2.91,8.42
4.389689922332764,3.75,7.35,2.82,8.71
4.399698972702026,4.24,7.45,2.62,8.96
4.43275785446167,4.66,7.34,2.33,9.0
4.434302806854248,4.89,7.18,2.08,8.93
4.435290813446045,4.89,7.17,1.91,8.88
4.440471887588501,4.73,7.25,1.74,8.82
4.458405017852783,4.65,7.24,1.6,8.75
4.459909915924072,4.78,7.09,1.44,8.67
4.471030950546265,4.98,6.86,1.3,8.57
4.479506015777588,5.13,6.54,1.25,8.4
4.48997688293457,5.31,6.29,1.34,8.34
4.500144004821777,5.46,6.2,1.45,8.38
4.530394077301025,5.63,6.0,1.64,8.38
4.531459808349609,5.9,5.8,1.84,8.47
4.532627105712891,6.21,5.47,2.01,8.51
4.540102005004883,6.45,5.18,2.16,8.54
4.550259113311768,6.63,4.87,2.21,8.51
4.560092926025391,6.78,4.45,2.29,8.42
4.570653915405273,6.98,3.87,2.32,8.31
4.580643892288208,7.18,3.0,2.37,8.13
4.590839862823486,7.3,2.08,2.39,7.95
4.6006529331207275,7.3,1.12,2.32,7.74
4.636192798614502,7.19,0.15,2.28,7.54
4.637757778167725,6.98,-0.79,2.11,7.33
4.6388609409332275,6.66,-1.68,1.86,7.11
4.65893292427063,6.26,-2.6,1.66,6.97
4.659801006317139,5.81,-3.5,1.55,6.95
4.673473834991455,5.33,-4.33,1.46,7.02
4.676015853881836,4.74,-5.1,1.47,7.11
4.688449859619141,4.1,-5.74,1.55,7.22
4.691274881362915,3.39,-6.23,1.61,7.27
4.7052388191223145,2.65,-6.54,1.63,7.24
4.732419967651367,1.94,-6.94,1.62,7.38
4.734004974365234,1.25,-7.37,1.46,7.61
4.7351908683776855,0.57,-7.71,1.15,7.81
4.740935802459717,-0.23,-7.99,0.7,8.02
4.751379013061523,-0.98,-8.23,0.14,8.28
4.761415958404541,-1.5,-8.5,-0.43,8.64
4.771996021270752,-1.91,-8.86,-1.01,9.11
4.781919956207275,-2.29,-9.23,-1.49,9.62
4.792136907577515,-2.56,-9.49,-1.81,9.99
4.802340030670166,-2.55,-9.74,-1.96,10.25
4.83734393119812,-2.17,-10.15,-2.02,10.57
4.838910102844238,-1.69,-10.59,-1.96,10.9
4.840101957321167,-1.84,-10.74,-1.81,11.04
4.859309911727905,-2.52,-10.41,-1.46,10.8
4.860243797302246,-2.99,-10.04,-0.97,10.52
4.874241828918457,-3.04,-9.88,-0.49,10.34
4.876737117767334,-3.06,-9.87,-0.26,10.33
4.888465881347656,-2.91,-9.88,-0.29,10.3
4.892675876617432,-2.57,-9.87,-0.19,10.2
4.905383110046387,-2.27,-9.77,-0.04,10.03
4.9356369972229,-1.9,-9.7,-0.34,9.89
4.937115907669067,-1.22,-9.82,-0.63,9.91
4.93825888633728,-0.3,-10.12,-0.85,10.16
4.959096908569336,0.61,-10.49,-1.0,10.55
4.95993709564209,1.34,-10.72,-1.02,10.85
4.973825931549072,1.86,-10.72,-0.91,10.91
4.976233005523682,2.15,-10.47,-0.78,10.71
4.988548994064331,2.25,-10.07,-0.6,10.33
4.993088960647583,2.19,-9.48,-0.35,9.73
5.005539894104004,2.04,-8.81,-0.06,9.04
5.035772800445557,1.85,-8.08,0.23,8.29
5.037323951721191,1.79,-7.37,0.37,7.59
5.038467884063721,1.84,-6.84,0.49,7.1
5.059385776519775,1.98,-6.47,0.52,6.78
5.060522079467773,2.09,-6.15,0.42,6.5
5.073587894439697,2.16,-5.83,0.42,6.23
5.075859069824219,2.18,-5.43,0.54,5.87
5.08845591545105,2.12,-4.97,0.6,5.43
5.093739032745361,2.15,-4.48,0.65,5.01
5.105544090270996,2.28,-4.03,0.7,4.68
5.135948896408081,2.49,-3.64,0.76,4.47
5.137510776519775,2.79,-3.28,0.89,4.39
5.138659954071045,3.16,-2.84,1.08,4.38
5.160163879394531,3.45,-2.37,1.25,4.36
5.1619179248809814,3.71,-1.91,1.39,4.39
5.173938989639282,3.87,-1.4,1.48,4.37
5.17570686340332,4.03,-0.82,1.63,4.42
5.18837308883667,4.2,-0.18,1.81,4.57
5.194396018981934,4.38,0.51,1.84,4.77
5.206100940704346,4.83,1.13,1.91,5.31
5.234822988510132,5.26,1.69,2.17,5.93
5.236352920532227,5.57,2.19,2.27,6.4
5.237477779388428,5.74,2.58,2.3,6.7
5.243851900100708,5.72,2.99,2.4,6.88
5.2545249462127686,5.66,3.46,2.46,7.07
5.264322996139526,5.68,3.96,2.55,7.37
5.274759769439697,5.77,4.42,2.66,7.73
5.2847349643707275,5.92,4.7,2.72,8.03
5.295567035675049,5.89,4.87,2.69,8.1
5.305653095245361,5.64,5.07,2.55,8.0
5.3369879722595215,5.29,5.34,2.47,7.91
5.338340997695923,4.96,5.68,2.56,7.96
5.339470863342285,4.8,5.97,2.78,8.14
5.359827041625977,4.79,6.23,2.96,8.39
5.360694885253906,4.78,6.54,3.03,8.64
5.374114036560059,4.7,6.97,3.09,8.95
5.376587867736816,4.66,7.39,3.15,9.28
5.388393878936768,4.59,7.69,3.08,9.47
5.395918846130371,4.5,7.95,3.01,9.61
5.405831813812256,4.46,8.21,2.88,9.77
5.440340042114258,4.43,8.42,2.76,9.9
5.442014932632446,4.54,8.62,2.66,10.09
5.443149089813232,4.74,8.82,2.55,10.33
5.460521936416626,4.91,9.04,2.41,10.56
5.461793899536133,5.17,9.24,2.07,10.78
5.47345495223999,5.43,9.35,1.56,10.92
5.475967884063721,5.59,9.31,1.03,10.9
5.48855996131897,5.67,9.12,0.46,10.74
5.496067047119141,5.64,8.69,-0.09,10.36
5.50662088394165,5.49,8.13,-0.31,9.81
5.5397138595581055,5.3,7.8,-0.21,9.43
5.541276931762695,5.02,7.75,0.28,9.23
5.542444944381714,4.85,7.71,0.86,9.14
5.560196876525879,4.61,7.61,1.41,9.0
5.56196403503418,4.21,7.45,1.67,8.71
5.572829961776733,3.84,7.25,1.84,8.4
5.576076030731201,3.62,6.87,1.99,8.01
5.588764905929565,3.71,6.24,2.23,7.59
5.596527099609375,3.99,5.66,2.56,7.38
5.607119083404541,4.3,5.31,2.95,7.44
5.641845941543579,4.7,5.08,3.36,7.69
5.643399953842163,5.3,4.82,3.56,7.99
5.644526958465576,6.1,4.38,3.52,8.29
5.659702777862549,7.0,3.72,3.26,8.57
5.660849094390869,7.63,3.01,2.88,8.69
5.6723527908325195,7.92,2.29,2.43,8.59
5.676620006561279,7.9,1.61,1.99,8.3
5.688955783843994,7.58,0.92,1.44,7.77
5.697135925292969,7.04,0.24,1.03,7.11
5.707376003265381,6.47,-0.44,0.67,6.51
5.7425758838653564,5.95,-1.16,0.32,6.07
5.744138956069946,5.23,-1.37,0.24,5.41
5.745306968688965,4.58,-1.42,0.04,4.79
5.758246898651123,4.33,-1.78,-0.09,4.68
5.759398937225342,4.27,-2.15,0.0,4.78
5.773828983306885,4.24,-2.49,0.2,4.92
5.777157783508301,4.1,-2.77,0.5,4.97
5.7890589237213135,3.88,-3.01,0.91,4.99
5.7980780601501465,3.64,-3.27,1.37,5.08
5.808193922042847,3.52,-3.63,1.82,5.37
5.839677810668945,3.51,-4.16,2.23,5.88
5.841329097747803,3.64,-4.75,2.56,6.5
5.842467784881592,3.86,-5.23,2.77,7.06
5.860536098480225,3.99,-5.59,2.79,7.41
5.862302780151367,3.98,-5.97,2.68,7.65
5.874691963195801,3.77,-6.42,2.51,7.85
5.878262042999268,3.32,-6.88,2.36,7.99
5.8894147872924805,2.7,-7.33,2.36,8.16
5.89856481552124,2.03,-7.6,2.67,8.3
5.908627986907959,1.41,-7.67,3.12,8.39
5.945234775543213,0.74,-7.65,3.39,8.4
5.946959018707275,0.05,-7.7,3.47,8.44
5.948124885559082,-0.62,-7.81,3.34,8.51
5.957894802093506,-1.25,-7.92,3.1,8.59
5.959198951721191,-1.83,-8.0,2.86,8.69
5.973750114440918,-2.14,-8.07,2.59,8.74
5.978582859039307,-2.25,-8.13,2.29,8.74
5.989163875579834,-2.28,-8.28,1.88,8.79
5.9991960525512695,-2.22,-8.45,1.39,8.84
6.009164810180664,-2.29,-8.6,0.95,8.95
6.043374061584473,-2.54,-8.64,0.58,9.02
6.044929027557373,-2.81,-8.54,0.4,8.99
6.046054840087891,-3.1,-8.36,0.34,8.92
6.059305906295776,-3.3,-8.18,0.36,8.82
6.060326099395752,-3.41,-8.01,0.38,8.71
6.073041915893555,-3.39,-7.96,0.31,8.65
6.079593896865845,-3.28,-8.0,0.2,8.64
6.0894529819488525,-3.12,-8.1,0.05,8.68
6.099924087524414,-2.85,-8.25,-0.07,8.72
6.109797954559326,-2.34,-8.44,-0.14,8.75
6.147463798522949,-1.62,-8.65,-0.23,8.8
6.149036884307861,-0.92,-8.8,-0.41,8.85
6.150177955627441,-0.44,-8.78,-0.65,8.81
6.157035827636719,-0.16,-8.53,-0.82,8.57
6.15925407409668,0.16,-8.24,-0.73,8.27
6.173062801361084,0.43,-7.87,-0.55,7.9
6.179986000061035,0.56,-7.47,-0.48,7.5
6.190123081207275,0.79,-7.25,-0.49,7.3
6.20024299621582,0.99,-7.41,-0.52,7.49
6.210402011871338,1.1,-7.79,-0.59,7.88
6.246766090393066,1.2,-8.22,-0.6,8.32
6.248332977294922,1.31,-8.57,-0.46,8.68
6.249506950378418,1.35,-8.78,-0.29,8.88
6.257304906845093,1.37,-8.81,-0.01,8.91
6.259791851043701,1.27,-8.58,0.33,8.67
6.27319598197937,1.08,-8.09,0.79,8.19
6.2805070877075195,0.99,-7.47,1.32,7.65
6.290482044219971,0.95,-6.82,1.71,7.09
6.3008599281311035,0.93,-6.24,1.91,6.59
6.311158895492554,1.06,-5.76,2.02,6.19
6.3426618576049805,1.27,-5.34,2.07,5.86
6.344246864318848,1.42,-5.01,1.98,5.57
6.345416069030762,1.58,-4.8,1.82,5.37
6.359951019287109,1.78,-4.62,1.61,5.2
6.360634803771973,2.04,-4.47,1.33,5.09
6.374663829803467,2.33,-4.3,0.96,4.98
6.380821943283081,2.59,-4.13,0.54,4.9
6.391215801239014,2.81,-3.93,0.29,4.83
6.401431083679199,3.01,-3.69,0.17,4.76
6.411740779876709,3.17,-3.35,0.12,4.61
6.445385932922363,3.37,-2.89,0.29,4.44
6.4468817710876465,3.52,-2.38,0.45,4.27
6.448081016540527,3.64,-1.78,0.57,4.09
6.459001064300537,3.86,-1.22,0.69,4.1
6.461310863494873,4.19,-0.67,0.81,4.31
6.4736328125,4.61,-0.03,0.99,4.71
6.481410026550293,4.98,0.57,1.14,5.14
6.492438793182373,5.28,1.23,1.28,5.57
6.5019049644470215,5.55,1.89,1.49,6.04
6.512310981750488,5.85,2.46,1.77,6.58
6.544773101806641,6.23,2.91,1.86,7.12
6.546422004699707,6.63,3.21,1.79,7.58
6.547573089599609,6.86,3.48,1.56,7.84
6.557344913482666,6.72,3.87,1.29,7.86
6.561615943908691,6.35,4.37,1.19,7.79
6.573277950286865,6.05,4.92,1.11,7.87
6.58194899559021,5.77,5.46,1.29,8.04
6.592772006988525,5.55,6.07,1.7,8.39
6.602902889251709,5.47,6.72,2.15,8.92
6.6127800941467285,5.65,7.36,2.68,9.65
6.648010969161987,5.99,8.11,3.22,10.58
6.649610996246338,6.26,8.88,3.58,11.43
6.650749921798706,6.46,9.58,3.88,12.18
6.6592419147491455,6.73,10.1,3.96,12.76
6.662302017211914,7.05,10.45,3.85,13.18
6.673955917358398,7.34,10.65,3.51,13.4
6.682742118835449,7.45,10.8,2.95,13.44
6.693185806274414,7.51,10.85,2.34,13.4
6.703481912612915,7.55,10.81,1.72,13.29
6.713228940963745,7.52,10.71,1.08,13.13
6.746708869934082,7.41,10.55,0.46,12.9
6.748230934143066,7.21,10.29,-0.08,12.56
6.749375820159912,6.88,9.89,-0.45,12.05
6.757494926452637,6.61,9.32,-0.57,11.44
6.762787818908691,6.69,8.48,-0.41,10.8
6.773168087005615,7.08,7.44,0.04,10.27
6.7833099365234375,7.46,6.58,0.67,9.96
6.793820858001709,7.59,6.01,1.39,9.78
6.803807973861694,7.52,5.62,2.05,9.6
6.814036846160889,7.38,5.25,2.56,9.41
6.844883918762207,7.3,4.83,2.93,9.23
6.846427917480469,7.28,4.35,3.17,9.05
6.847548007965088,7.2,3.92,3.3,8.83
6.857700824737549,6.91,3.71,3.38,8.54
6.863300800323486,6.57,3.69,3.38,8.25
6.87406587600708,6.28,3.58,3.34,7.96
6.883976936340332,6.17,3.24,3.18,7.66
6.8941969871521,6.27,2.69,2.97,7.44
6.9050939083099365,6.36,2.0,2.78,7.22
6.9144158363342285,6.38,1.25,2.54,6.97
6.94802188873291,6.3,0.46,2.38,6.75
6.949579954147339,6.15,-0.35,2.23,6.55
6.950727939605713,5.96,-1.17,2.07,6.41
6.95762300491333,5.62,-1.99,2.06,6.3
6.963925838470459,5.12,-2.68,2.18,6.17
6.974328994750977,4.45,-2.98,2.19,5.78
6.984796047210693,3.77,-3.01,2.06,5.24
6.994791030883789,3.23,-2.8,2.01,4.72
7.005296945571899,3.01,-2.27,1.89,4.21
7.0151379108428955,3.29,-1.77,1.89,4.18
7.049491882324219,3.94,-1.51,1.9,4.62
7.0510499477386475,4.7,-1.79,1.56,5.26
7.05217981338501,5.35,-2.49,1.37,6.05
7.0577309131622314,5.65,-3.22,1.27,6.62
7.064562797546387,5.38,-3.88,1.25,6.74
7.075150966644287,4.7,-4.4,1.32,6.57
7.085319995880127,3.96,-4.86,1.42,6.42
7.09588098526001,3.35,-5.29,1.48,6.43
7.10575795173645,2.89,-5.79,1.53,6.64
7.116405010223389,2.56,-6.38,1.64,7.06
7.149961948394775,2.3,-6.92,1.78,7.5
7.151532888412476,1.97,-7.43,1.94,7.92
7.152730941772461,1.6,-7.9,2.04,8.31
7.157670974731445,1.1,-8.3,2.0,8.6
7.165448904037476,0.39,-8.62,1.85,8.82
7.175559043884277,-0.34,-8.84,1.73,9.01
7.185720920562744,-0.97,-8.98,1.47,9.15
7.196002960205078,-1.4,-9.22,1.12,9.39
7.20633602142334,-1.75,-9.43,0.82,9.62
7.2166428565979,-2.02,-9.6,0.43,9.81
7.250709056854248,-2.17,-9.79,0.07,10.02
7.2523109912872314,-2.23,-9.99,-0.18,10.23
7.253479957580566,-2.22,-10.17,-0.34,10.41
7.257857799530029,-2.15,-10.28,-0.44,10.51
7.2738869190216064,-2.13,-10.27,-0.55,10.5
7.2761077880859375,-2.09,-10.2,-0.58,10.42
7.289454936981201,-2.0,-10.1,-0.52,10.3
7.296627044677734,-1.88,-9.94,-0.48,10.12
7.306765079498291,-1.84,-9.8,-0.43,9.98
7.317333936691284,-1.77,-9.64,-0.37,9.8
7.352323055267334,-1.47,-9.6,-0.29,9.71
7.353802919387817,-1.05,-9.7,-0.38,9.76
7.3549439907073975,-0.75,-9.8,-0.53,9.84
7.358649969100952,-0.62,-9.72,-0.61,9.75
7.366905927658081,-0.48,-9.55,-0.59,9.58
7.377033948898315,-0.15,-9.48,-0.53,9.49
7.387217044830322,0.31,-9.6,-0.51,9.61
7.397202968597412,0.61,-9.75,-0.5,9.78
7.407066822052002,0.62,-9.75,-0.46,9.78
7.417589902877808,0.47,-9.48,-0.25,9.49
7.45303201675415,0.29,-8.92,0.1,8.92
7.454578876495361,0.23,-8.25,0.43,8.26
7.457195997238159,0.41,-7.63,0.65,7.66
7.459391117095947,0.81,-7.13,0.72,7.21
7.466941833496094,1.41,-6.72,0.64,6.89
7.477200984954834,2.11,-6.33,0.41,6.68
7.487144947052002,2.87,-6.02,0.14,6.67
7.497642993927002,3.36,-5.7,-0.05,6.61
7.507991790771484,3.51,-5.3,-0.19,6.35
7.517796039581299,3.49,-4.94,-0.33,6.05
7.547608852386475,3.39,-4.68,-0.49,5.79
7.549199104309082,3.23,-4.44,-0.66,5.53
7.550343990325928,3.01,-4.21,-0.82,5.23
7.558043003082275,2.84,-3.94,-0.92,4.94
7.5678699016571045,2.66,-3.61,-0.91,4.57
7.578262805938721,2.56,-3.26,-0.88,4.23
7.588719844818115,2.58,-2.92,-0.79,3.97
7.598336935043335,2.75,-2.64,-0.58,3.85
7.608678817749023,2.91,-2.4,-0.27,3.78
7.618653774261475,3.04,-2.15,0.03,3.72
7.653135776519775,3.26,-1.93,0.34,3.8
7.654743909835815,3.56,-1.65,0.68,3.98
7.655860900878906,3.93,-1.23,1.04,4.24
7.658298969268799,4.12,-0.6,1.25,4.34
7.668459892272949,4.17,0.26,1.33,4.38
7.679064989089966,4.37,1.22,1.28,4.71
7.688632011413574,4.78,2.06,1.3,5.36
7.698816776275635,5.37,2.57,1.63,6.17
7.709268093109131,5.81,3.13,2.05,6.91
7.719768047332764,5.94,3.71,2.17,7.33
7.750680923461914,5.87,4.21,2.25,7.56
7.752257823944092,5.56,4.56,2.29,7.54
7.7534499168396,5.05,4.85,2.48,7.42
7.758800983428955,4.51,5.1,2.45,7.23
7.7690229415893555,4.23,5.24,2.19,7.08
7.779078006744385,4.32,5.26,1.85,7.05
7.789308071136475,4.41,5.4,1.6,7.15
7.7997589111328125,4.39,5.54,1.38,7.2
7.8096699714660645,4.21,5.62,1.25,7.13
7.8202080726623535,3.76,5.81,1.37,7.05
7.854279041290283,3.21,6.06,1.66,7.05
7.855719089508057,2.92,6.11,1.91,7.03
7.856856822967529,2.9,5.89,2.16,6.91
7.876481056213379,2.94,5.58,2.31,6.71
7.878253936767578,2.88,5.42,2.39,6.58
7.890989780426025,2.66,5.55,2.47,6.63
7.892674922943115,2.5,5.81,2.53,6.81
7.906929969787598,2.58,6.1,2.54,7.09
7.910379886627197,2.82,6.46,2.4,7.44
7.923566818237305,3.27,6.7,2.09,7.74
7.950537919998169,3.84,6.77,1.68,7.96
7.952142000198364,4.58,6.63,1.2,8.14
7.953330993652344,5.29,6.37,0.86,8.32
7.959921836853027,5.76,6.23,0.54,8.5
7.970172882080078,6.07,6.36,0.43,8.8
7.980146884918213,6.39,6.69,0.43,9.26
7.991128921508789,6.77,6.95,0.46,9.71
8.00096082687378,7.02,7.06,0.4,9.96
8.011137008666992,6.94,7.08,0.37,9.92
8.021390914916992,6.51,6.96,0.44,9.54
8.056248903274536,5.84,6.72,0.55,8.92
8.057840824127197,5.12,6.35,0.73,8.18
8.058976888656616,4.41,5.86,0.99,7.4
8.077269077301025,3.71,5.4,1.21,6.66
8.078097820281982,3.13,5.05,1.41,6.1
8.0918288230896,2.85,4.68,1.54,5.69
8.09439992904663,2.86,4.25,1.61,5.36
8.10661792755127,2.98,3.81,1.66,5.11
8.111604928970337,3.08,3.41,1.69,4.89
8.123907089233398,3.11,3.06,1.76,4.7
8.155396938323975,3.03,2.7,1.84,4.45
8.156959056854248,2.88,2.36,1.97,4.21
8.158107995986938,2.64,2.1,2.0,3.92
8.177450895309448,2.51,1.78,1.94,3.63
8.178310871124268,2.48,1.48,1.76,3.38
8.192310810089111,2.37,1.18,1.54,3.06
8.194838047027588,2.27,0.79,1.43,2.79
8.206589937210083,2.3,0.41,1.44,2.74
8.212208986282349,2.45,0.01,1.6,2.92
8.223956108093262,2.71,-0.43,1.61,3.18
8.2566978931427,2.98,-0.86,1.54,3.46
8.258336067199707,3.11,-1.3,1.43,3.66
8.259324073791504,3.11,-1.68,1.27,3.75
8.278357982635498,3.04,-2.03,1.23,3.85
8.280157089233398,2.86,-2.29,1.07,3.81
8.292954921722412,2.61,-2.62,0.84,3.79
8.295642852783203,2.34,-2.92,0.73,3.81
8.306416988372803,2.15,-3.2,0.77,3.93
8.312561988830566,2.03,-3.54,0.86,4.17
8.32376480102539,1.8,-3.91,0.92,4.4
8.354504108428955,1.52,-4.17,1.0,4.54
8.356090068817139,1.24,-4.39,1.14,4.7
8.357220888137817,0.99,-4.63,1.26,4.89
8.377944946289062,0.74,-4.91,1.29,5.13
8.379089832305908,0.56,-5.24,1.24,5.41
8.3923499584198,0.44,-5.63,1.17,5.76
8.39487886428833,0.31,-6.08,1.1,6.18
8.406698942184448,0.09,-6.52,0.94,6.58
8.413964986801147,-0.17,-6.89,0.81,6.93
8.423597812652588,-0.41,-7.17,0.63,7.2
8.460696935653687,-0.66,-7.37,0.39,7.4
8.462371826171875,-0.94,-7.5,0.15,7.56
8.463533878326416,-1.21,-7.56,-0.04,7.65
8.475225925445557,-1.34,-7.56,-0.19,7.68
8.476337909698486,-1.53,-7.54,-0.32,7.7
8.490793943405151,-1.75,-7.46,-0.46,7.67
8.493402004241943,-1.86,-7.39,-0.51,7.63
8.506228923797607,-1.85,-7.39,-0.45,7.63
8.513948917388916,-1.57,-7.54,-0.35,7.7
8.523940086364746,-0.85,-7.93,-0.2,7.97
8.553928852081299,-0.02,-8.41,-0.17,8.41
8.555501937866211,0.29,-8.6,-0.29,8.6
8.556657791137695,0.06,-8.32,-0.43,8.33
8.563726902008057,-0.12,-7.97,-0.51,7.98
8.573969841003418,0.07,-7.81,-0.64,7.83
8.583477020263672,0.52,-7.89,-0.84,7.95
8.59407377243042,0.9,-8.05,-1.0,8.16
8.604481935501099,0.91,-8.05,-1.01,8.16
8.614875793457031,0.65,-7.81,-0.81,7.87
8.624813079833984,0.36,-7.4,-0.43,7.42
8.657263994216919,0.14,-6.96,0.14,6.96
8.658667087554932,0.06,-6.64,0.27,6.64
8.659809112548828,-0.01,-6.35,0.32,6.35
8.678555011749268,0.05,-6.09,0.26,6.09
8.680325031280518,0.23,-5.94,-0.1,5.94
8.693650960922241,0.33,-5.82,-0.5,5.85
8.695594787597656,0.13,-5.54,-0.84,5.6
8.707518100738525,-0.21,-5.16,-1.21,5.3
8.714929103851318,-0.46,-4.87,-1.42,5.09
8.725538969039917,-0.57,-4.7,-1.55,4.98
8.757177829742432,-0.55,-4.61,-1.65,4.92
8.758771896362305,-0.48,-4.62,-1.66,4.93
8.759922981262207,-0.41,-4.63,-1.57,4.9
8.778223991394043,-0.37,-4.48,-1.26,4.66
8.779973030090332,-0.34,-4.18,-0.87,4.28
8.790947914123535,-0.28,-3.87,-0.61,3.92
8.795104026794434,-0.09,-3.63,-0.44,3.65
8.807088851928711,0.13,-3.37,-0.23,3.38
8.815512895584106,0.38,-3.01,-0.04,3.03
8.826217889785767,0.69,-2.59,0.12,2.68
8.860336780548096,1.05,-2.12,0.14,2.36
8.861892938613892,1.39,-1.59,-0.12,2.11
8.863032817840576,1.73,-1.03,-0.6,2.1
8.877315998077393,2.04,-0.69,-0.82,2.3
8.878479957580566,2.42,-0.49,-0.62,2.54
8.891297817230225,2.87,-0.24,-0.07,2.88
8.895668029785156,3.24,0.17,0.61,3.3
8.90738296508789,3.75,0.7,1.31,4.03
8.916129112243652,4.24,1.4,1.98,4.88
8.926736831665039,4.51,2.09,2.47,5.55
8.958370923995972,4.83,2.57,2.78,6.13
8.95996379852295,5.07,2.89,2.94,6.53
8.96110486984253,5.06,3.16,2.95,6.65
8.978261947631836,4.77,3.44,2.86,6.53
8.979404926300049,4.25,3.68,2.69,6.23
8.99197793006897,3.71,3.84,2.65,5.96
8.996358871459961,3.22,3.95,2.71,5.77
9.007694959640503,2.75,4.08,2.8,5.66
9.016905784606934,2.39,4.22,2.95,5.67
9.027447938919067,2.23,4.34,3.19,5.82
9.062444925308228,2.28,4.43,3.49,6.08
9.064013004302979,2.44,4.55,3.81,6.41
9.065160989761353,2.67,4.75,4.13,6.83
9.076003074645996,2.95,5.05,4.39,7.31
9.077178955078125,3.25,5.34,4.59,7.75
9.09138298034668,3.51,5.68,4.76,8.2
9.096879005432129,3.84,6.07,4.88,8.68
9.107805967330933,4.13,6.44,4.93,9.1
9.117439985275269,4.4,6.77,4.87,9.42
9.127639770507812,4.68,7.01,4.72,9.66
9.16106390953064,5.01,7.14,4.48,9.8
9.16263484954834,5.56,6.96,4.17,9.83
9.163734912872314,6.25,6.5,3.93,9.83
9.176837921142578,6.84,6.16,3.77,9.94
9.177988052368164,7.26,6.03,3.72,10.14
9.1910400390625,7.67,6.08,3.72,10.47
9.197472095489502,8.0,6.2,3.7,10.77
9.207823991775513,8.15,6.17,3.77,10.89
9.218072891235352,7.87,6.04,4.04,10.71
9.228331089019775,7.17,6.01,4.29,10.29
9.266623973846436,6.35,5.95,4.32,9.71
9.268225908279419,5.54,5.7,4.18,8.98
9.269377946853638,4.73,5.35,4.02,8.19
9.275333881378174,3.99,4.95,3.85,7.43
9.277667045593262,3.51,4.45,3.68,6.75
9.291508913040161,3.25,3.81,3.47,6.09
9.29799509048462,3.14,3.12,3.25,5.49
9.308480978012085,3.11,2.49,3.04,5.01
9.318723917007446,3.06,1.92,2.83,4.58
9.328827857971191,3.01,1.35,2.57,4.18
9.361560821533203,2.92,0.74,2.29,3.78
9.363133907318115,2.79,0.13,2.02,3.44
9.364276885986328,2.59,-0.44,1.73,3.14
9.3765709400177,2.3,-0.94,1.41,2.85
9.378172874450684,1.99,-1.36,1.12,2.65
9.392791986465454,1.74,-1.71,0.83,2.57
9.39863896369934,1.57,-2.05,0.55,2.64
9.408902883529663,1.37,-2.41,0.3,2.78
9.419068813323975,1.11,-2.69,0.09,2.91
9.42953896522522,0.87,-2.81,-0.13,2.94
9.466238975524902,0.76,-2.9,-0.24,3.0
9.467803001403809,0.67,-2.84,-0.21,2.92
9.469007015228271,0.64,-2.77,-0.19,2.84
9.475584030151367,0.73,-2.83,-0.1,2.92
9.478811979293823,0.9,-2.92,0.02,3.05
9.491448879241943,1.11,-2.98,0.18,3.18
9.4997878074646,1.32,-3.04,0.38,3.33
9.509512901306152,1.49,-3.11,0.53,3.48
9.519928932189941,1.53,-3.19,0.6,3.58
9.530192852020264,1.41,-3.31,0.58,3.64
9.56186294555664,1.2,-3.41,0.6,3.66
9.563395023345947,0.99,-3.54,0.67,3.73
9.56456184387207,0.77,-3.74,0.74,3.88
9.578437805175781,0.48,-4.01,0.85,4.12
9.580135822296143,0.3,-4.3,0.91,4.4
9.592344999313354,0.21,-4.6,0.93,4.69
9.599912881851196,0.09,-4.98,0.93,5.06
9.61025094985962,-0.05,-5.38,0.93,5.46
9.620951890945435,-0.19,-5.76,0.96,5.84
9.630879878997803,-0.29,-6.15,0.98,6.23
9.665481090545654,-0.41,-6.54,0.97,6.62
9.667032957077026,-0.61,-6.85,0.94,6.94
9.668181896209717,-1.01,-7.02,0.89,7.14
9.675596952438354,-1.46,-7.03,0.84,7.22
9.680002927780151,-1.77,-7.01,0.76,7.26
9.691829919815063,-1.93,-7.05,0.67,7.34
9.70036792755127,-2.01,-7.14,0.5,7.43
9.7116539478302,-2.01,-7.32,0.29,7.59
9.721093893051147,-2.01,-7.49,0.16,7.75
9.73140001296997,-2.06,-7.59,0.12,7.86
9.766809940338135,-1.95,-7.64,0.07,7.88
9.768335819244385,-1.47,-7.74,0.22,7.88
9.769359111785889,-0.58,-7.98,0.29,8.0
9.775723934173584,0.24,-8.25,-0.01,8.25
9.78062105178833,0.51,-8.17,-0.31,8.19
9.791106939315796,0.23,-7.59,-0.48,7.6
9.801249027252197,-0.08,-6.89,-0.35,6.89
9.811753988265991,-0.14,-6.45,-0.12,6.45
9.822119951248169,0.06,-6.16,-0.03,6.16
9.83175277709961,0.45,-5.99,-0.09,6.0
9.867369890213013,0.74,-5.87,-0.21,5.92
9.868939876556396,0.95,-5.79,-0.32,5.87
9.87006688117981,1.17,-5.79,-0.36,5.91
9.875808954238892,1.31,-5.8,-0.22,5.95
9.881196022033691,1.33,-5.74,-0.01,5.89
9.891958951950073,1.21,-5.56,0.22,5.69
9.90190601348877,0.98,-5.28,0.47,5.39
9.91156792640686,0.77,-4.9,0.63,4.99
9.922422885894775,0.6,-4.49,0.61,4.57
9.93236494064331,0.46,-4.06,0.44,4.1
9.966852903366089,0.37,-3.69,0.22,3.71
9.968440055847168,0.36,-3.38,-0.12,3.4
9.969578981399536,0.37,-3.17,-0.55,3.23
9.975862979888916,0.33,-3.01,-0.93,3.16
9.981720924377441,0.23,-2.84,-1.23,3.1
9.992015838623047,0.09,-2.64,-1.36,2.97
10.00220799446106,-0.07,-2.45,-1.32,2.78
10.012173891067505,-0.17,-2.3,-1.2,2.59
10.02335500717163,-0.21,-2.19,-1.04,2.43
10.033021926879883,-0.23,-2.09,-0.85,2.26
10.067720890045166,-0.26,-2.02,-0.55,2.1
10.069313049316406,-0.21,-1.94,-0.26,1.96
10.070528984069824,-0.13,-1.86,-0.02,1.86
10.075897932052612,-0.03,-1.74,0.13,1.74
10.082369804382324,0.09,-1.53,0.3,1.56
10.092508792877197,0.19,-1.26,0.47,1.35
10.102919101715088,0.38,-0.98,0.69,1.25
10.113122940063477,0.7,-0.67,0.95,1.35
10.12388801574707,1.02,-0.35,1.21,1.62
10.133534908294678,1.38,0.05,1.46,2.0
10.168380975723267,1.77,0.48,1.76,2.54
10.169891834259033,2.1,0.93,2.02,3.05
10.171057939529419,2.38,1.42,2.2,3.53
10.175992012023926,2.67,1.92,2.35,4.04
10.182902812957764,2.99,2.39,2.37,4.5
10.193090915679932,3.25,2.85,2.33,4.91
10.20353388786316,3.43,3.34,2.24,5.28
10.213656902313232,3.59,3.74,2.06,5.57
10.223941802978516,3.76,4.04,1.82,5.81
10.234338998794556,3.85,4.3,1.67,6.0
10.267039775848389,3.84,4.54,1.56,6.14
10.268489837646484,3.84,4.74,1.66,6.32
10.269542932510376,3.85,4.84,1.98,6.49
10.2759690284729,3.7,4.82,2.42,6.54
10.28445291519165,3.51,4.77,2.96,6.62
10.29393196105957,3.46,4.67,3.53,6.8
10.304065942764282,3.59,4.71,4.03,7.16
10.314587116241455,3.75,4.93,4.21,7.48
10.324400901794434,3.91,5.31,4.12,7.77
10.335186958312988,4.12,5.68,3.73,7.94
10.3698148727417,4.39,5.86,3.34,8.04
10.371445894241333,4.67,5.98,3.06,8.18
10.372610092163086,4.85,6.11,2.72,8.26
10.376620769500732,4.93,6.17,2.15,8.18
10.384768962860107,5.04,6.04,1.47,8.0
10.39445686340332,5.2,5.74,0.84,7.79
10.40467882156372,5.3,5.63,0.32,7.73
10.415040969848633,5.34,5.87,0.09,7.93
10.425575971603394,5.32,6.3,0.0,8.24
10.435664892196655,5.39,6.78,-0.1,8.66
10.469194889068604,5.4,7.19,-0.15,8.99
10.470831871032715,5.28,7.49,-0.2,9.16
10.472043991088867,5.0,7.6,-0.19,9.09
10.47640609741211,4.72,7.34,-0.03,8.72
10.491622924804688,4.39,6.82,0.16,8.11
10.49474811553955,4.0,6.28,0.21,7.44
10.507400035858154,3.59,5.92,0.22,6.92
10.515511989593506,3.31,5.66,0.32,6.56
10.52581787109375,3.09,5.43,0.57,6.27
10.536107063293457,2.89,5.26,0.91,6.07
10.571321964263916,2.7,5.11,1.27,5.91
10.572554111480713,2.7,4.86,1.53,5.76
10.573623895645142,2.83,4.35,1.7,5.46
10.576406955718994,2.89,3.73,1.89,5.08
10.585335969924927,2.81,3.1,2.2,4.72
10.595964908599854,2.55,2.53,2.59,4.42
10.605912923812866,2.27,2.07,2.98,4.27
10.615838050842285,2.07,1.6,3.34,4.24
10.626344919204712,2.08,1.05,3.5,4.2
10.63662576675415,2.34,0.49,3.48,4.22
10.668233871459961,2.71,0.01,3.17,4.17
10.669816017150879,2.95,-0.3,2.79,4.07
10.671003818511963,3.18,-0.47,2.44,4.03
10.676317930221558,3.54,-0.81,1.97,4.13
10.686198949813843,3.87,-1.32,1.5,4.35
10.69646692276001,4.12,-1.82,1.26,4.67
10.706512928009033,4.3,-2.3,1.17,5.01
10.716653823852539,4.3,-2.75,1.14,5.22
10.72804307937622,4.2,-3.17,0.99,5.35
10.737112998962402,3.94,-3.67,0.72,5.43
10.770742893218994,3.43,-4.03,0.5,5.31
10.772307872772217,2.68,-4.35,0.45,5.12
10.773464918136597,1.91,-4.64,0.53,5.04
10.776601791381836,1.24,-4.94,0.61,5.12
10.786781787872314,0.7,-5.27,0.73,5.36
10.796848773956299,0.37,-5.58,0.9,5.66
10.807090997695923,0.29,-5.95,1.05,6.04
10.81744909286499,0.31,-6.37,1.08,6.46
10.827425956726074,0.22,-6.87,1.05,6.95
10.838039875030518,-0.08,-7.27,0.89,7.32
10.872049808502197,-0.54,-7.59,0.51,7.62
10.873640060424805,-1.26,-7.93,-0.1,8.03
10.874811887741089,-2.12,-8.35,-0.76,8.64
10.895512104034424,-2.88,-8.73,-1.27,9.28
10.897377014160156,-3.45,-8.99,-1.67,9.77
10.910221099853516,-3.87,-9.1,-2.13,10.11
10.911972999572754,-4.06,-9.01,-2.54,10.2
10.924818992614746,-4.02,-8.78,-2.79,10.05
10.928354978561401,-3.97,-8.52,-2.92,9.84
10.942022800445557,-3.85,-8.3,-2.94,9.61
10.97190809249878,-3.57,-8.24,-2.8,9.4
10.97351884841919,-3.11,-8.32,-2.58,9.24
10.974671840667725,-2.5,-8.42,-2.28,9.07
10.995863914489746,-1.89,-8.39,-1.79,8.78
10.997636795043945,-1.15,-8.3,-1.3,8.47
11.01012897491455,-0.15,-8.34,-1.08,8.41
11.01184892654419,0.89,-8.38,-0.99,8.48
11.024585962295532,1.91,-8.19,-0.87,8.45
11.028482913970947,2.62,-7.7,-0.69,8.16
11.041121006011963,2.72,-7.04,-0.45,7.56
11.071346998214722,2.59,-6.28,-0.24,6.79
11.072938919067383,2.46,-5.53,-0.05,6.05
11.074069023132324,2.41,-4.95,-0.02,5.5
11.078316926956177,2.56,-4.62,-0.17,5.28
11.088647842407227,2.84,-4.45,-0.34,5.28
11.098907947540283,2.98,-4.29,-0.49,5.24
11.10889196395874,2.94,-4.09,-0.64,5.07
11.119607925415039,2.67,-3.9,-0.65,4.77
11.12932300567627,2.13,-3.78,-0.69,4.39
11.139760971069336,1.42,-3.7,-0.73,4.02
11.172627925872803,0.77,-3.65,-0.73,3.8
11.174118995666504,0.1,-3.59,-0.75,3.66
11.175246000289917,-0.52,-3.42,-0.84,3.55
11.196135997772217,-0.86,-3.21,-0.92,3.44
11.19796085357666,-0.89,-3.09,-0.96,3.35
11.21073293685913,-0.75,-2.96,-0.93,3.19
11.212954044342041,-0.52,-2.78,-0.67,2.9
11.22413682937622,-0.22,-2.66,-0.14,2.67
11.22971796989441,0.04,-2.51,0.48,2.55
11.241714000701904,0.28,-2.4,0.88,2.57
11.273828029632568,0.43,-2.31,1.13,2.6
11.27541208267212,0.48,-2.14,1.28,2.53
11.27656888961792,0.49,-1.91,1.32,2.37
11.296218872070312,0.49,-1.64,1.25,2.11
11.297844886779785,0.4,-1.4,1.12,1.83
11.30938196182251,0.3,-1.09,1.03,1.52
11.311178922653198,0.31,-0.74,1.0,1.28
11.32477593421936,0.39,-0.35,1.0,1.12
11.33037805557251,0.54,-0.01,1.16,1.27
11.34182596206665,0.78,0.32,1.4,1.63
11.375918865203857,1.09,0.66,1.59,2.03
11.37748384475708,1.39,0.98,1.76,2.44
11.378621101379395,1.67,1.31,1.99,2.9
11.39616584777832,1.87,1.69,2.1,3.28
11.397017002105713,1.99,2.12,2.13,3.6
11.410163879394531,2.13,2.49,2.04,3.85
11.412016868591309,2.31,2.84,1.91,4.12
11.42496109008789,2.53,3.15,1.73,4.39
11.43128490447998,2.7,3.48,1.61,4.68
11.442816972732544,2.77,3.85,1.58,4.99
11.478692054748535,2.79,4.19,1.54,5.26
11.480331897735596,2.8,4.47,1.52,5.48
11.481497764587402,2.88,4.71,1.67,5.76
11.48354697227478,3.0,4.85,1.85,5.99
11.490721940994263,3.11,4.95,2.17,6.23
11.500979900360107,3.14,5.09,2.55,6.5
11.511132955551147,3.11,5.21,2.84,6.69
11.521353960037231,3.07,5.35,3.07,6.89
11.531816959381104,3.18,5.53,3.24,7.15
11.54194688796997,3.5,5.71,3.32,7.47
11.572926998138428,3.91,5.96,3.36,7.88
11.57433795928955,4.23,6.37,3.4,8.36
11.575486898422241,4.58,6.75,3.45,8.85
11.595952987670898,5.16,6.97,3.43,9.32
11.596595764160156,6.01,7.13,3.36,9.91
11.610958099365234,7.0,7.41,3.29,10.71
11.613350868225098,7.93,7.86,3.08,11.58
11.6249098777771,8.66,8.3,2.69,12.29
11.632176876068115,9.09,8.66,2.06,12.72
11.642212867736816,9.13,8.77,1.29,12.72
11.678875923156738,8.63,8.44,0.54,12.08
11.680465936660767,7.73,7.83,0.09,11.0
11.681617975234985,6.62,7.13,-0.12,9.73
11.696110963821411,5.45,6.3,-0.11,8.33
11.696955919265747,4.34,5.45,0.04,6.96
11.70916199684143,3.31,4.79,0.41,5.83
11.712265968322754,2.43,4.31,1.05,5.05
11.725133895874023,1.79,3.94,1.69,4.64
11.732872009277344,1.39,3.6,2.23,4.45
11.744946956634521,1.19,3.26,2.49,4.27
11.777821063995361,1.21,2.84,2.55,4.0
11.779390811920166,1.27,2.4,2.56,3.73
11.78053593635559,1.22,1.95,2.42,3.33
11.796386957168579,1.21,1.39,2.2,2.86
11.79753303527832,1.32,0.36,1.89,2.33
11.810226917266846,0.94,-0.44,2.01,2.26
11.812952041625977,-0.16,0.67,2.65,2.73
11.82528305053711,-0.62,1.26,1.74,2.23
11.8333740234375,-0.07,1.03,1.07,1.48
11.84397292137146,0.84,0.83,0.93,1.5
11.879324913024902,1.64,0.63,0.61,1.85
11.880891799926758,2.24,0.43,0.64,2.36
11.882043838500977,2.53,0.44,1.08,2.78
11.895392894744873,2.82,0.33,1.51,3.21
11.896598815917969,3.18,0.03,1.58,3.55
11.910129070281982,3.51,-0.33,1.51,3.83
11.913540840148926,3.77,-0.72,1.42,4.09
11.925615787506104,3.99,-1.18,1.43,4.39
11.93419098854065,4.04,-1.6,1.47,4.58
11.944506883621216,3.86,-2.04,1.51,4.61
11.977370977401733,3.45,-2.48,1.65,4.55
11.978962898254395,2.91,-2.91,1.78,4.48
11.980110883712769,2.43,-3.4,1.88,4.58
11.983551979064941,2.09,-3.95,1.94,4.87
11.994277000427246,1.72,-4.51,1.87,5.17
12.003944873809814,1.18,-5.01,1.79,5.44
12.014386892318726,0.6,-5.44,1.81,5.76
12.024540901184082,0.03,-5.86,1.95,6.17
12.034574031829834,-0.48,-6.25,1.99,6.57
12.045308113098145,-0.94,-6.63,1.91,6.96
12.079879999160767,-1.24,-6.98,1.76,7.3
12.081249952316284,-1.41,-7.32,1.53,7.6
12.082372903823853,-1.57,-7.66,1.18,7.9
12.095617771148682,-1.68,-7.99,0.79,8.2
12.096762895584106,-1.81,-8.28,0.45,8.48
12.10932207107544,-2.08,-8.52,0.22,8.77
12.114701986312866,-2.25,-8.74,0.07,9.02
12.125801086425781,-2.22,-9.1,0.06,9.36
12.135375022888184,-1.9,-9.6,0.11,9.78
12.145734786987305,-1.25,-10.29,0.13,10.36
12.179195880889893,-0.27,-11.12,0.16,11.12
12.180783987045288,0.76,-11.88,0.08,11.9
12.181940078735352,1.32,-12.41,-0.13,12.48
12.196367979049683,1.25,-12.26,-0.7,12.34
12.197524070739746,0.52,-11.43,-1.53,11.54
12.209947109222412,-0.29,-10.52,-2.11,10.73
12.21533203125,-0.77,-9.97,-2.52,10.31
12.22562289237976,-0.91,-9.7,-2.79,10.13
12.235800981521606,-0.85,-9.4,-2.82,9.85
12.246066093444824,-0.61,-9.02,-2.59,9.4
12.280590057373047,-0.43,-8.51,-2.17,8.79
12.282174110412598,-0.55,-7.77,-1.53,7.93
12.283318996429443,-0.65,-7.03,-0.91,7.11
12.295561790466309,-0.51,-6.44,-0.4,6.47
12.296763896942139,-0.19,-5.98,-0.03,5.98
12.310429096221924,0.13,-5.49,-0.03,5.49
12.315804958343506,0.46,-5.05,-0.32,5.08
12.326225996017456,0.71,-4.61,-0.55,4.69
12.336293935775757,0.92,-4.08,-0.79,4.25
12.346628904342651,1.14,-3.67,-1.15,4.01
12.38117504119873,1.31,-3.41,-1.44,3.92
12.382807970046997,1.42,-3.15,-1.68,3.84
12.384016990661621,1.56,-2.84,-1.67,3.64
12.394985914230347,1.69,-2.4,-1.41,3.25
12.396235942840576,1.74,-1.9,-1.2,2.84
12.411000967025757,1.87,-1.54,-1.01,2.62
12.416493892669678,2.07,-1.21,-0.77,2.51
12.426405906677246,2.16,-0.79,-0.62,2.38
12.43717098236084,2.28,-0.44,-0.45,2.36
12.447362899780273,2.32,-0.27,-0.27,2.35
12.48213005065918,2.33,-0.08,-0.18,2.33
12.48371696472168,2.53,0.1,-0.04,2.53
12.48489499092102,2.78,0.35,0.14,2.8
12.4949049949646,2.92,0.76,0.35,3.03
12.496587991714478,3.12,1.01,0.52,3.32
12.510687828063965,3.4,1.12,1.12,3.75
12.517291069030762,3.45,1.47,1.8,4.15
12.527208805084229,3.4,1.9,2.16,4.45
12.53777289390564,3.43,2.24,2.43,4.76
12.547701835632324,3.47,2.49,2.71,5.05
12.582287788391113,3.44,2.81,2.83,5.26
12.583882808685303,3.41,3.19,2.76,5.42
12.585057973861694,3.32,3.57,2.68,5.56
12.593849897384644,3.29,3.91,2.61,5.73
12.597209930419922,3.43,4.21,2.45,5.95
12.608903884887695,3.57,4.5,2.3,6.18
12.618099927902222,3.61,4.81,2.14,6.38
12.627609968185425,3.66,5.07,1.94,6.54
12.638315916061401,3.59,5.24,1.82,6.6
12.64838695526123,3.39,5.32,1.76,6.54
12.68026089668274,3.11,5.25,1.76,6.35
12.681742906570435,2.96,4.98,1.98,6.12
12.682898044586182,3.08,4.72,2.23,6.06
12.694865942001343,3.3,4.6,2.47,6.17
12.69785189628601,3.47,4.64,2.64,6.36
12.710861921310425,3.41,4.74,2.71,6.43
12.718454837799072,2.99,4.86,2.72,6.32
12.728516101837158,2.42,4.93,2.76,6.14
12.739211082458496,2.27,4.74,2.82,5.96
12.748979091644287,2.5,4.36,2.76,5.73
12.78353500366211,2.76,3.96,2.44,5.4
12.785161018371582,3.03,3.77,2.13,5.28
12.786319971084595,3.23,3.73,1.98,5.31
12.793952941894531,3.37,3.93,2.02,5.55
12.798623085021973,3.56,4.36,2.1,6.0
12.810046911239624,3.77,4.86,2.14,6.51
12.819231986999512,4.02,5.08,1.97,6.77
12.829657077789307,4.06,5.03,1.7,6.68
12.83948802947998,3.78,4.89,1.58,6.37
12.849745988845825,3.2,4.81,1.57,5.98
12.884368896484375,2.45,4.84,1.55,5.64
12.886003971099854,1.8,4.87,1.58,5.42
12.8871488571167,1.25,4.93,1.66,5.35
12.893870830535889,0.86,4.98,1.69,5.32
12.899016857147217,0.74,4.86,1.79,5.23
12.90945291519165,0.76,4.64,1.82,5.04
12.919529914855957,0.69,4.4,1.88,4.83
12.930020809173584,0.57,4.19,2.02,4.68
12.940415859222412,0.47,3.98,2.23,4.58
12.95027494430542,0.4,3.79,2.5,4.55
12.985966920852661,0.4,3.66,2.77,4.6
12.987627983093262,0.45,3.49,2.97,4.6
12.98869800567627,0.5,3.38,3.14,4.64
12.994098901748657,0.73,3.32,3.28,4.72
12.999587059020996,1.26,3.11,3.24,4.66
13.009963989257812,1.85,2.74,3.03,4.48
13.020576000213623,2.33,2.39,2.77,4.33
13.030802965164185,2.67,2.12,2.47,4.21
13.040751934051514,3.09,1.82,2.21,4.21
13.050695896148682,3.54,1.35,2.05,4.3
13.08609390258789,3.78,0.85,1.83,4.28
13.087666034698486,3.76,0.46,1.56,4.09
13.08882188796997,3.44,0.22,1.42,3.72
13.094176769256592,3.08,0.07,1.23,3.31
13.100202083587646,2.85,-0.1,1.0,3.02
13.110322952270508,2.73,-0.41,0.86,2.89
13.120819091796875,2.83,-0.79,0.83,3.05
13.130877017974854,2.94,-1.23,0.79,3.28
13.141266822814941,2.89,-1.71,0.82,3.45
13.151561975479126,2.71,-2.07,1.23,3.62
13.184775829315186,2.57,-2.37,1.72,3.89
13.18635606765747,2.39,-2.74,2.11,4.2
13.187496900558472,2.21,-3.09,2.27,4.42
13.194169044494629,2.0,-3.5,2.19,4.58
13.20106291770935,1.84,-3.95,1.95,4.77
13.21086597442627,1.79,-4.46,1.73,5.1
13.221374034881592,1.57,-4.86,1.51,5.32
13.23183798789978,1.26,-5.16,1.21,5.44
13.241765022277832,1.08,-5.59,1.08,5.79
13.252145767211914,0.82,-6.11,1.1,6.26
13.287686824798584,0.42,-6.52,1.18,6.63
13.289220809936523,0.02,-6.83,1.28,6.94
13.29037094116211,-0.35,-7.13,1.42,7.27
13.294160842895508,-0.75,-7.34,1.53,7.53
13.310009956359863,-0.96,-7.62,1.49,7.82
13.311479091644287,-0.68,-8.13,1.34,8.26
13.325121879577637,-0.13,-8.81,1.19,8.89
13.332344055175781,0.2,-9.29,1.06,9.35
13.342298030853271,0.15,-9.37,1.12,9.43
13.352579116821289,0.03,-9.22,1.31,9.31
13.38598108291626,-0.09,-9.04,1.33,9.13
13.387357950210571,-0.23,-8.84,1.2,8.92
13.388525009155273,-0.4,-8.6,1.03,8.67
13.394355773925781,-0.5,-8.46,0.76,8.5
13.402231931686401,-0.55,-8.42,0.44,8.44
13.412112951278687,-0.79,-8.3,0.3,8.34
13.422776937484741,-1.02,-8.05,0.34,8.12
13.43326711654663,-1.1,-7.71,0.54,7.8
13.44337797164917,-1.18,-7.32,0.84,7.46
13.453478813171387,-1.17,-6.97,1.03,7.14
13.490317821502686,-0.96,-6.75,1.07,6.9
13.491936922073364,-0.79,-6.5,0.99,6.62
13.493344783782959,-0.63,-6.29,0.65,6.35
13.49528193473816,-0.56,-6.08,0.23,6.11
13.502581119537354,-0.61,-5.83,-0.2,5.86
13.51273488998413,-0.61,-5.63,-0.51,5.68
13.522974014282227,-0.55,-5.51,-0.75,5.58
13.533297061920166,-0.49,-5.42,-0.98,5.52
13.543120861053467,-0.45,-5.35,-1.09,5.47
13.553690910339355,-0.36,-5.22,-0.95,5.31
13.585413932800293,-0.26,-4.98,-0.67,5.03
13.587003946304321,-0.22,-4.66,-0.37,4.67
13.588115930557251,-0.18,-4.34,-0.14,4.34
13.59433889389038,-0.06,-4.05,0.14,4.05
13.603302955627441,0.07,-3.76,0.44,3.78
13.613270998001099,0.25,-3.51,0.62,3.57
13.62368392944336,0.56,-3.42,0.75,3.54
13.633793830871582,0.9,-3.33,0.86,3.55
13.644277095794678,1.15,-3.12,1.07,3.49
13.654726028442383,1.23,-2.77,1.27,3.28
13.689112901687622,1.27,-2.29,1.29,2.91
13.69069790840149,1.48,-1.75,1.15,2.56
13.691848993301392,1.83,-1.35,1.07,2.51
13.69493293762207,2.16,-0.85,0.99,2.52
13.704002857208252,2.42,-0.39,1.31,2.77
13.71408987045288,2.73,0.15,1.72,3.23
13.723944902420044,2.97,0.69,2.09,3.69
13.734272956848145,3.17,1.16,2.34,4.1
13.744623899459839,3.34,1.59,2.42,4.42
13.75512409210205,3.37,2.03,2.28,4.54
13.792932987213135,3.33,2.42,1.91,4.53
13.79446792602539,3.3,2.79,1.49,4.57
13.795614957809448,3.21,3.17,0.94,4.6
13.814140796661377,3.0,3.56,0.44,4.67
13.815890789031982,2.77,3.97,0.08,4.84
13.826908111572266,2.64,4.25,-0.15,5.0
13.828670024871826,2.61,4.49,-0.21,5.19
13.84312891960144,2.66,4.76,-0.07,5.45
13.846028804779053,2.77,4.94,0.16,5.66
13.859755039215088,2.86,5.02,0.63,5.81
13.888284921646118,2.84,5.17,1.22,6.02
13.890005111694336,2.79,5.35,1.7,6.26
13.891177892684937,2.84,5.55,2.05,6.56
13.89500379562378,3.1,5.75,2.34,6.93
13.905289888381958,3.61,5.96,2.62,7.44
13.915540933609009,4.2,6.17,2.78,7.96
13.925302028656006,4.82,6.3,2.89,8.44
13.935589790344238,5.48,6.27,3.02,8.85
13.9460289478302,6.06,6.21,3.25,9.26
13.956196784973145,6.53,6.35,3.59,9.79
13.993067979812622,6.89,6.64,4.0,10.37
13.994684934616089,7.23,6.93,4.37,10.92
13.99591588973999,7.74,7.13,4.58,11.47
14.013925075531006,8.17,7.25,4.34,11.75
14.015192985534668,8.21,7.28,3.76,11.59
14.028455972671509,7.82,7.19,3.06,11.05
14.030202865600586,7.13,6.89,2.43,10.2
14.042695999145508,6.1,6.39,2.05,9.06
14.046730041503906,4.91,5.9,1.89,7.9
14.059385776519775,3.89,5.47,1.91,6.97
14.090650081634521,3.17,5.12,2.05,6.36
14.092241764068604,2.61,4.96,2.17,6.01
14.093378067016602,2.17,4.95,2.04,5.77
14.113793849945068,1.98,4.93,1.81,5.61
14.114943981170654,1.84,4.76,1.47,5.31
14.12828779220581,1.62,4.4,1.23,4.84
14.130008935928345,1.32,3.98,1.11,4.33
14.142340898513794,0.95,3.54,1.08,3.82
14.14663290977478,0.51,3.19,1.22,3.45
14.159629821777344,0.09,2.92,1.45,3.26
14.191078901290894,-0.28,2.66,1.64,3.13
14.192632913589478,-0.43,2.39,1.72,2.97
14.193774938583374,-0.32,2.14,1.63,2.7
14.21402096748352,-0.04,1.83,1.46,2.34
14.2151517868042,0.3,1.5,1.23,1.96
14.226658821105957,0.7,1.11,1.09,1.7
14.22840690612793,1.07,0.77,1.07,1.69
14.243750095367432,1.34,0.54,1.06,1.79
14.2476167678833,1.49,0.47,1.05,1.88
14.260201930999756,1.72,0.41,0.93,1.99
14.288856983184814,2.11,0.15,0.74,2.24
14.290457963943481,2.63,-0.31,0.54,2.7
14.291613101959229,3.08,-0.81,0.48,3.22
14.297314882278442,3.35,-1.19,0.52,3.59
14.307543992996216,3.62,-1.52,0.61,3.97
14.317375898361206,3.81,-1.83,0.71,4.28
14.328168869018555,3.93,-2.18,0.74,4.55
14.337792873382568,3.98,-2.57,0.69,4.78
14.348476886749268,3.85,-2.94,0.64,4.88
14.35872197151184,3.58,-3.32,0.58,4.91
14.394370079040527,3.3,-3.76,0.61,5.03
14.395951986312866,3.0,-4.28,0.64,5.26
14.397053956985474,2.73,-4.83,0.64,5.58
14.414606094360352,2.52,-5.36,0.59,5.95
14.415773868560791,2.42,-5.83,0.51,6.33
14.428299903869629,2.38,-6.28,0.38,6.72
14.430071830749512,2.37,-6.6,0.17,7.01
14.442363977432251,2.29,-6.88,-0.04,7.25
14.448422908782959,2.07,-7.05,-0.2,7.35
14.461334943771362,1.7,-7.15,-0.31,7.35
14.48983097076416,1.28,-7.37,-0.33,7.48
14.491427898406982,0.71,-7.58,-0.22,7.61
14.492568969726562,0.3,-7.71,-0.13,7.71
14.498493909835815,0.07,-7.97,0.0,7.97
14.508762836456299,-0.14,-8.3,-0.07,8.3
14.518465042114258,-0.43,-8.65,-0.18,8.66
14.528847932815552,-0.77,-8.93,-0.12,8.96
14.539525032043457,-1.13,-9.07,-0.07,9.14
14.549046039581299,-1.49,-9.03,-0.18,9.15
14.559503078460693,-1.47,-8.94,-0.43,9.07
14.594751834869385,-1.25,-8.81,-0.95,8.94
14.596127986907959,-1.22,-8.74,-1.61,8.97
14.59728479385376,-1.44,-8.52,-1.97,8.86
14.614093780517578,-1.8,-7.97,-1.97,8.4
14.614876985549927,-2.02,-7.41,-1.72,7.87
14.627386093139648,-1.93,-7.0,-1.39,7.39
14.629578113555908,-1.44,-6.73,-1.27,6.99
14.6423978805542,-0.78,-6.6,-1.33,6.77
14.649774074554443,-0.15,-6.56,-1.44,6.71
14.660270929336548,0.39,-6.58,-1.58,6.77
14.695187091827393,0.74,-6.68,-1.72,6.93
14.696774959564209,0.64,-6.71,-1.79,6.97
14.697921991348267,0.2,-6.6,-1.83,6.85
14.714532852172852,-0.26,-6.55,-1.77,6.78
14.715720891952515,-0.59,-6.54,-1.63,6.76
14.728126049041748,-0.73,-6.55,-1.56,6.77
14.73014497756958,-0.78,-6.58,-1.49,6.79
14.742605924606323,-0.82,-6.53,-1.33,6.71
14.7503080368042,-0.8,-6.33,-1.15,6.48
14.760807037353516,-0.78,-5.97,-0.97,6.09
14.791214942932129,-0.67,-5.55,-0.81,5.64
14.7933828830719,-0.5,-5.17,-0.73,5.24
14.794600009918213,-0.32,-4.79,-0.62,4.84
14.814373970031738,-0.12,-4.4,-0.53,4.43
14.815361022949219,0.11,-4.07,-0.42,4.09
14.827168941497803,0.4,-3.76,-0.28,3.79
14.830725908279419,0.6,-3.47,-0.14,3.52
14.843079090118408,0.76,-3.1,0.01,3.19
14.852035999298096,0.88,-2.66,0.01,2.8
14.861364841461182,1.18,-2.26,-0.08,2.55
14.894956111907959,1.63,-1.85,-0.2,2.47
14.896536827087402,2.09,-1.42,-0.34,2.54
14.89769196510315,2.47,-0.92,-0.22,2.64
14.91479206085205,2.76,-0.42,0.12,2.79
14.91594409942627,3.15,0.02,0.64,3.21
14.928146839141846,3.54,0.48,1.33,3.81
14.931289911270142,3.89,1.08,1.97,4.49
14.942827939987183,4.25,1.72,2.46,5.2
14.952003002166748,4.59,2.35,2.77,5.85
14.96191692352295,4.95,2.97,2.89,6.45
14.997437953948975,5.3,3.49,2.75,6.91
14.999032020568848,5.54,3.9,2.5,7.22
15.000144958496094,5.55,4.23,2.31,7.35
15.012803077697754,5.3,4.52,2.13,7.28
15.013805866241455,4.85,4.75,2.01,7.07
15.028614044189453,4.33,4.93,2.15,6.9
15.03197193145752,3.89,5.07,2.47,6.85
15.042992115020752,3.61,5.19,2.77,6.9
15.052587985992432,3.51,5.29,3.05,7.04
15.062675952911377,3.69,5.41,3.39,7.37
15.096370935440063,4.09,5.58,3.82,7.9
15.097956895828247,4.66,5.81,4.11,8.5
15.099095821380615,5.26,6.09,4.21,9.08
15.115132808685303,5.87,6.47,4.25,9.71
15.116278886795044,6.63,6.83,4.16,10.38
15.128190994262695,7.39,7.12,3.84,10.95
15.132483005523682,7.91,7.35,3.38,11.31
15.143938064575195,8.26,7.47,2.88,11.5
15.153036117553711,8.53,7.48,2.42,11.6
15.16356897354126,8.73,7.46,2.06,11.66
15.198461055755615,8.77,7.48,1.86,11.67
15.200039863586426,8.47,7.67,1.75,11.55
15.201189994812012,7.83,7.88,1.71,11.23
15.213051795959473,7.01,7.89,1.92,10.72
15.214204788208008,6.28,7.61,2.34,10.14
15.228547096252441,5.56,7.07,2.83,9.42
15.23311996459961,4.81,6.41,3.26,8.65
15.243227005004883,4.12,5.7,3.49,7.85
15.253607988357544,3.6,5.0,3.58,7.12
15.264173030853271,3.3,4.32,3.53,6.48
15.297729015350342,3.02,3.63,3.45,5.84
15.299232959747314,2.62,3.08,3.37,5.26
15.30037784576416,2.22,2.58,3.29,4.73
15.31397795677185,1.93,2.1,3.18,4.27
15.315096855163574,1.78,1.62,3.02,3.86
15.328466892242432,1.72,1.12,2.87,3.52
15.333685874938965,1.65,0.69,2.73,3.26
15.343914985656738,1.52,0.35,2.6,3.03
15.35435676574707,1.45,0.13,2.45,2.84
15.364421844482422,1.43,-0.07,2.32,2.72
15.3991539478302,1.52,-0.31,2.19,2.68
15.400759935379028,1.59,-0.57,1.98,2.6
15.40191388130188,1.58,-0.77,1.82,2.53
15.412542819976807,1.5,-0.94,1.67,2.43
15.413891792297363,1.44,-1.13,1.46,2.34
15.428867816925049,1.43,-1.36,1.27,2.34
15.434253931045532,1.44,-1.63,1.18,2.47
15.444463968276978,1.49,-2.01,1.18,2.76
15.455081939697266,1.4,-2.38,1.2,3.01
15.465429782867432,1.29,-2.74,1.3,3.29
15.497069835662842,1.13,-3.08,1.43,3.57
15.498655796051025,0.93,-3.39,1.54,3.83
15.499774932861328,0.71,-3.69,1.71,4.12
15.51471996307373,0.48,-3.93,1.93,4.4
15.515887975692749,0.29,-4.09,2.02,4.57
15.528194904327393,0.2,-4.17,1.92,4.59
15.534859895706177,0.16,-4.24,1.75,4.58
15.544872999191284,0.13,-4.39,1.51,4.64
15.555598974227905,-0.03,-4.58,1.37,4.78
15.565439939498901,-0.27,-4.77,1.2,4.92
15.598768949508667,-0.61,-4.98,1.08,5.13
15.600363969802856,-1.07,-5.15,1.0,5.35
15.601540088653564,-1.49,-5.37,0.85,5.63
15.614067077636719,-1.7,-5.69,0.7,5.97
15.615302085876465,-1.63,-6.13,0.56,6.36
15.629270076751709,-1.54,-6.63,0.42,6.81
15.635474920272827,-1.55,-6.98,0.31,7.15
15.645679950714111,-1.58,-7.18,0.3,7.35
15.656174898147583,-1.62,-7.25,0.35,7.43
15.665870904922485,-1.62,-7.26,0.41,7.44
15.701064109802246,-1.6,-7.22,0.4,7.4
15.702642917633057,-1.5,-7.15,0.37,7.31
15.703782081604004,-1.09,-7.16,0.4,7.25
15.712621927261353,-0.3,-7.34,0.36,7.35
15.715610980987549,0.56,-7.82,0.2,7.84
15.729028940200806,1.07,-8.25,-0.03,8.31
15.736128807067871,1.25,-8.48,-0.2,8.57
15.74630093574524,1.23,-8.58,-0.16,8.66
15.756608009338379,1.03,-8.55,-0.1,8.61
15.766944885253906,0.63,-8.43,-0.08,8.45
15.802671909332275,0.08,-8.13,0.0,8.13
15.804257869720459,-0.46,-7.72,0.15,7.73
15.80544900894165,-1.12,-7.24,0.26,7.33
15.814003944396973,-1.88,-6.66,0.19,6.92
15.81630277633667,-2.42,-6.13,0.24,6.59
15.828361988067627,-2.45,-5.84,0.29,6.33
15.836670875549316,-1.96,-5.8,0.15,6.12
15.846780776977539,-1.35,-5.82,-0.1,5.97
15.85750699043274,-0.77,-5.8,-0.3,5.85
15.8674898147583,-0.26,-5.78,-0.55,5.81
15.903702974319458,0.13,-5.74,-0.87,5.8
15.905268907546997,0.41,-5.68,-1.15,5.8
15.906261920928955,0.56,-5.6,-1.43,5.8
15.912086963653564,0.54,-5.45,-1.53,5.68
15.916999816894531,0.59,-5.23,-1.4,5.44
15.927244901657104,0.65,-4.98,-1.15,5.15
15.937834978103638,0.55,-4.61,-0.73,4.69
15.947415828704834,0.4,-4.18,-0.3,4.2
15.958432912826538,0.39,-3.78,0.13,3.8
15.968002796173096,0.37,-3.36,0.49,3.41
16.00207281112671,0.36,-2.9,0.83,3.03
16.003670930862427,0.4,-2.46,1.09,2.72
16.004826068878174,0.42,-2.02,1.25,2.41
16.012117862701416,0.48,-1.59,1.39,2.16
16.017395973205566,0.65,-1.16,1.54,2.03
16.028242111206055,0.87,-0.81,1.7,2.07
16.03813099861145,0.98,-0.47,1.79,2.09
16.048099994659424,1.07,-0.08,1.84,2.13
16.058469772338867,1.19,0.25,1.96,2.3
16.068638801574707,1.43,0.54,2.07,2.57
16.103400945663452,1.89,0.96,2.29,3.12
16.105031967163086,2.57,1.47,2.47,3.85
16.10617208480835,3.22,1.92,2.47,4.48
16.112278938293457,3.76,2.31,2.33,4.99
16.1180419921875,4.18,2.73,2.19,5.45
16.128150939941406,4.46,3.21,1.94,5.82
16.13853883743286,4.56,3.77,1.63,6.13
16.14899492263794,4.54,4.32,1.37,6.41
16.159127950668335,4.51,4.81,1.15,6.69
16.168920040130615,4.51,5.18,0.97,6.93
16.205012798309326,4.53,5.44,0.93,7.13
16.206624031066895,4.52,5.67,1.05,7.32
16.207848072052002,4.47,5.9,1.29,7.51
16.212378978729248,4.47,6.12,1.6,7.74
16.228248119354248,4.61,6.24,1.89,7.98
16.22942304611206,4.87,6.25,2.1,8.19
16.24332094192505,5.16,6.18,2.21,8.34
16.249541997909546,5.35,6.13,2.25,8.44
16.261023998260498,5.4,6.21,2.32,8.55
16.26962900161743,5.37,6.42,2.47,8.72
16.306461811065674,5.28,6.68,2.64,8.91
16.307872772216797,5.21,6.88,2.77,9.06
16.30904483795166,5.22,7.02,2.86,9.2
16.31286597251892,5.19,7.17,2.81,9.28
16.319190979003906,5.15,7.2,2.54,9.2
16.329526901245117,5.32,6.89,2.24,8.98
16.339890956878662,5.71,6.31,2.09,8.76
16.35044288635254,6.14,5.83,2.19,8.74
16.360403060913086,6.5,5.68,2.46,8.97
16.37045192718506,6.81,5.61,2.69,9.22
16.40512490272522,7.24,5.58,2.98,9.61
16.406707763671875,7.43,5.72,3.22,9.91
16.40790295600891,7.23,5.94,3.24,9.9
16.41269588470459,6.99,5.79,3.02,9.56
16.428292989730835,6.83,5.26,2.74,9.04
16.429769039154053,6.48,4.77,2.38,8.39
16.443428993225098,5.91,4.26,2.12,7.58
16.450453996658325,5.39,3.6,1.99,6.78
16.461386919021606,4.98,2.94,1.91,6.09
16.471304893493652,4.57,2.45,1.82,5.49
16.500927925109863,4.12,2.14,1.7,4.94
16.502295970916748,3.81,1.86,1.53,4.5
16.503442764282227,3.69,1.52,1.33,4.2
16.513073921203613,3.64,1.06,1.14,3.95
16.52029800415039,3.53,0.6,0.98,3.71
16.530426025390625,3.3,0.14,0.92,3.42
16.540672779083252,3.03,-0.3,0.83,3.15
16.551371097564697,2.79,-0.79,0.78,3.0
16.561948776245117,2.51,-1.35,0.74,2.94
16.571894884109497,2.25,-1.93,0.58,3.02
16.606075763702393,2.07,-2.48,0.77,3.32
16.607627868652344,1.78,-2.75,0.94,3.4
16.608743906021118,1.48,-2.97,0.77,3.4
16.61230707168579,1.26,-3.18,0.56,3.46
16.627899885177612,1.17,-3.24,0.59,3.49
16.630997896194458,1.26,-3.3,0.62,3.58
16.64354395866394,1.38,-3.59,0.58,3.88
16.651882886886597,1.45,-3.92,0.78,4.25
16.66191792488098,1.5,-4.18,1.05,4.56
16.672302961349487,1.47,-4.48,1.29,4.88
16.71086883544922,1.29,-4.76,1.47,5.14
16.71227192878723,1.01,-5.03,1.58,5.36
16.713457107543945,0.67,-5.31,1.7,5.61
16.73169994354248,0.33,-5.59,1.83,5.89
16.732872009277344,-0.06,-5.81,1.91,6.11
16.745024919509888,-0.59,-5.99,1.94,6.32
16.746773958206177,-1.19,-6.17,2.01,6.59
16.760569095611572,-1.77,-6.34,2.15,6.92
16.762267112731934,-2.32,-6.46,2.3,7.23
16.777498960494995,-2.74,-6.64,2.43,7.58
16.80347776412964,-2.96,-6.91,2.52,7.92
16.804988861083984,-3.01,-7.22,2.43,8.19
16.80614185333252,-2.97,-7.58,2.08,8.4
16.812535762786865,-2.99,-7.97,1.6,8.66
16.822556972503662,-3.12,-8.19,1.14,8.83
16.832520008087158,-3.33,-8.29,0.78,8.96
16.84266996383667,-3.51,-8.29,0.52,9.01
16.853190898895264,-3.6,-8.23,0.34,8.98
16.863131999969482,-3.58,-8.02,0.29,8.78
16.873839855194092,-3.4,-7.81,0.28,8.52
16.90954303741455,-2.99,-7.69,0.28,8.25
16.91104292869568,-2.36,-7.67,0.33,8.03
16.912080764770508,-1.49,-7.78,0.42,7.93
16.932071924209595,-0.29,-8.15,0.47,8.16
16.9338641166687,0.8,-8.58,0.43,8.62
16.94545078277588,1.15,-8.66,0.5,8.75
16.947353839874268,0.98,-8.38,0.53,8.45
16.960445880889893,0.7,-8.02,0.65,8.07
16.96350383758545,0.58,-7.71,1.05,7.8
16.977495908737183,0.77,-7.47,1.35,7.62
17.00832176208496,0.68,-7.15,1.37,7.31
17.00991988182068,0.54,-6.68,1.38,6.84
17.01110291481018,0.82,-6.37,1.37,6.56
17.032208919525146,1.2,-6.26,1.2,6.48
17.03338384628296,1.52,-6.13,0.93,6.38
17.046249866485596,1.87,-5.84,0.65,6.16
17.048009872436523,2.17,-5.51,0.37,5.93
17.061494827270508,2.37,-5.18,0.08,5.69
17.064157962799072,2.42,-4.77,-0.16,5.35
17.077987909317017,2.41,-4.31,-0.37,4.95
17.10362195968628,2.33,-3.95,-0.67,4.63
17.10509204864502,2.23,-3.63,-0.94,4.36
17.106307983398438,2.03,-3.31,-1.01,4.01
17.11403179168701,1.75,-2.98,-1.12,3.63
17.124552965164185,1.36,-2.67,-1.1,3.19
17.13417387008667,0.96,-2.27,-0.85,2.6
17.14438009262085,0.73,-1.91,-0.59,2.12
17.15447187423706,0.65,-1.55,-0.41,1.73
17.16498899459839,0.76,-1.18,-0.24,1.42
17.175473928451538,0.79,-0.8,-0.23,1.14
17.209619998931885,0.73,-0.36,-0.42,0.91
17.21120595932007,0.68,0.09,-0.5,0.84
17.21235990524292,0.64,0.57,-0.69,1.1
17.231900930404663,0.87,0.67,-0.57,1.23
17.233043909072876,1.23,0.58,0.22,1.37
17.245433807373047,1.21,0.91,0.97,1.79
17.24709391593933,1.2,1.27,1.23,2.13
17.26116394996643,1.28,1.56,1.37,2.43
17.265410900115967,1.53,1.78,1.59,2.83
17.278428077697754,1.91,1.9,1.78,3.22
17.30942988395691,2.15,2.12,1.71,3.47
17.31098699569702,2.3,2.42,1.59,3.69
17.312139987945557,2.44,2.79,1.55,4.01
17.33206796646118,2.57,3.25,1.56,4.42
17.333209991455078,2.75,3.66,1.55,4.83
17.345534801483154,2.98,4.06,1.53,5.26
17.347219944000244,3.25,4.45,1.53,5.71
17.361047983169556,3.47,4.87,1.56,6.17
17.36610507965088,3.62,5.3,1.66,6.62
17.37834596633911,3.65,5.68,1.78,6.98
17.41115093231201,3.62,5.99,1.97,7.27
17.412757873535156,3.55,6.25,2.19,7.51
17.413901805877686,3.53,6.42,2.38,7.7
17.43284511566162,3.65,6.47,2.53,7.84
17.434035778045654,3.89,6.37,2.65,7.92
17.445584774017334,4.14,6.27,2.73,7.99
17.447412967681885,4.46,6.23,2.77,8.14
17.462939977645874,4.75,6.26,2.78,8.33
17.468389987945557,4.89,6.4,2.76,8.51
17.478548049926758,5.02,6.52,2.7,8.66
17.50905990600586,5.15,6.64,2.62,8.8
17.51064682006836,5.28,6.76,2.47,8.92
17.51180601119995,5.55,6.72,2.32,9.01
17.532405853271484,6.08,6.44,2.14,9.11
17.53357982635498,6.57,6.22,2.09,9.28
17.545522928237915,6.8,6.3,2.17,9.52
17.547374963760376,6.84,6.59,2.19,9.74
17.561563968658447,6.71,6.98,2.17,9.92
17.567112922668457,6.24,7.39,2.23,9.92
17.57813787460327,5.73,7.47,2.21,9.67
17.61321783065796,5.65,6.84,2.09,9.11
17.614808082580566,5.73,5.94,1.99,8.48
17.615907907485962,5.7,5.17,1.99,7.94
17.632438898086548,5.68,4.52,2.15,7.57
17.633585929870605,5.7,3.86,2.41,7.29
17.64659881591797,5.76,3.17,2.6,7.07
17.64837098121643,5.81,2.58,2.63,6.87
17.66123676300049,5.82,2.09,2.51,6.67
17.66779088973999,5.78,1.64,2.28,6.42
17.67848491668701,5.63,1.25,2.05,6.12
17.713589906692505,5.34,0.86,1.79,5.69
17.715179920196533,4.93,0.46,1.61,5.2
17.716294765472412,4.45,0.03,1.61,4.73
17.732728958129883,3.92,-0.38,1.6,4.25
17.733872890472412,3.45,-0.85,1.52,3.86
17.746567964553833,3.0,-1.28,1.46,3.57
17.748368978500366,2.57,-1.72,1.48,3.42
17.761369943618774,2.15,-2.12,1.37,3.31
17.768423080444336,1.77,-2.47,1.22,3.27
17.77847695350647,1.44,-2.78,1.11,3.32
17.813724994659424,1.22,-3.0,1.08,3.41
17.815319061279297,1.09,-3.25,1.1,3.6
17.816543102264404,0.91,-3.52,1.12,3.8
17.832618951797485,0.64,-3.84,1.12,4.05
17.833393096923828,0.25,-4.18,1.16,4.34
17.848400115966797,-0.2,-4.41,1.38,4.62
17.85029697418213,-0.5,-4.47,1.69,4.8
17.861896991729736,-0.52,-4.59,1.93,5.0
17.869061946868896,-0.49,-4.84,2.05,5.27
17.879122972488403,-0.43,-5.03,2.05,5.44
17.91408395767212,-0.55,-5.08,1.93,5.46
17.915679931640625,-0.85,-5.15,1.66,5.47
17.91685199737549,-1.25,-5.24,1.47,5.58
17.932817935943604,-1.52,-5.33,1.42,5.72
17.934042930603027,-1.71,-5.48,1.41,5.91
17.94567584991455,-1.88,-5.73,1.42,6.19
17.949047088623047,-1.93,-6.06,1.57,6.55
17.96173095703125,-1.86,-6.39,1.79,6.89
17.969645977020264,-1.7,-6.64,1.86,7.1
17.979673862457275,-1.59,-6.88,1.79,7.28
18.01523780822754,-1.6,-7.07,1.61,7.42
18.016808032989502,-1.71,-7.12,1.41,7.45
18.017932891845703,-1.86,-7.16,1.2,7.49
18.03170895576477,-2.02,-7.18,0.91,7.51
18.032871961593628,-2.12,-7.13,0.63,7.46
18.046695947647095,-2.1,-7.09,0.41,7.4
18.049755096435547,-2.05,-7.06,0.33,7.35
18.06114101409912,-1.84,-7.09,0.33,7.33
18.070251941680908,-1.3,-7.33,0.24,7.44
18.08019208908081,-0.56,-7.79,-0.01,7.81
18.11371898651123,0.16,-8.38,-0.4,8.39
18.115298986434937,0.4,-8.79,-0.71,8.82
18.11646795272827,0.25,-8.83,-0.76,8.86
18.133290767669678,0.0,-8.62,-0.69,8.64
18.134510040283203,-0.25,-8.32,-0.56,8.34
18.145341873168945,-0.43,-7.92,-0.43,7.94
18.15023899078369,-0.53,-7.49,-0.2,7.51
18.16204309463501,-0.56,-7.0,0.17,7.02
18.17077898979187,-0.57,-6.42,0.62,6.47
18.181169986724854,-0.51,-5.95,0.98,6.05
18.216370105743408,-0.03,-5.66,1.18,5.78
18.217957019805908,0.79,-5.54,1.23,5.72
18.219118118286133,1.67,-5.49,1.02,5.82
18.230618953704834,2.48,-5.43,0.59,5.99
18.231826782226562,3.12,-5.32,0.03,6.16
18.246657848358154,3.38,-5.15,-0.52,6.18
18.250905990600586,3.29,-4.94,-1.02,6.02
18.26133680343628,2.82,-4.57,-1.43,5.55
18.271419048309326,2.17,-4.12,-1.64,4.93
18.281673908233643,1.58,-3.67,-1.54,4.28
18.314652919769287,1.19,-3.35,-1.29,3.78
18.31623411178589,0.88,-3.06,-0.92,3.31
18.31739091873169,0.63,-2.75,-0.54,2.87
18.33259391784668,0.44,-2.44,0.0,2.47
18.333770990371704,0.32,-2.08,0.59,2.18
18.34610080718994,0.24,-1.66,1.05,1.97
18.35145378112793,0.1,-1.22,1.31,1.79
18.36198902130127,0.07,-0.81,1.44,1.65
18.37216281890869,0.13,-0.42,1.55,1.61
18.382843017578125,0.23,-0.04,1.59,1.6
18.41573476791382,0.26,0.28,1.53,1.57
18.417253971099854,0.24,0.67,1.4,1.57
18.418288946151733,0.33,0.95,1.13,1.51
18.432089805603027,0.49,1.13,1.04,1.61
18.433226108551025,0.69,1.3,1.14,1.86
18.446964979171753,0.9,1.51,1.35,2.21
18.452273845672607,1.11,1.77,1.52,2.58
18.46304702758789,1.5,1.98,1.69,3.0
18.473171949386597,1.98,2.12,1.91,3.47
18.482804775238037,2.34,2.39,2.17,3.98
18.5178279876709,2.68,2.77,2.3,4.48
18.5193989276886,3.01,3.13,2.37,4.94
18.52054190635681,3.27,3.53,2.44,5.39
18.531837940216064,3.42,4.02,2.51,5.84
18.5330069065094,3.53,4.52,2.61,6.3
18.547393798828125,3.62,4.98,2.67,6.71
18.552637100219727,3.61,5.37,2.63,6.98
18.562796115875244,3.61,5.73,2.61,7.25
18.573314905166626,3.57,6.01,2.52,7.43
18.583384037017822,3.52,6.21,2.43,7.54
18.61896276473999,3.5,6.33,2.38,7.61
18.620524883270264,3.55,6.39,2.31,7.66
18.621676921844482,3.66,6.43,2.19,7.71
18.63070011138916,3.84,6.4,2.02,7.73
18.63278293609619,4.17,6.31,1.85,7.78
18.646130084991455,4.59,6.21,1.68,7.9
18.653312921524048,5.08,6.18,1.46,8.13
18.663639068603516,5.41,6.22,1.26,8.33
18.673866987228394,5.58,6.35,1.04,8.51
18.684314966201782,5.63,6.43,0.72,8.57
18.719958782196045,5.51,6.47,0.35,8.5
18.721524000167847,5.35,6.39,0.04,8.33
18.722548007965088,5.35,5.93,-0.25,7.99
18.73011589050293,5.43,5.08,-0.3,7.44
18.733777046203613,5.32,4.31,0.07,6.84
18.745820999145508,5.09,3.82,0.61,6.39
18.7539279460907,4.92,3.64,1.23,6.24
18.764052867889404,4.68,3.87,1.66,6.29
18.77451992034912,4.58,4.22,1.75,6.46
18.78485679626465,4.81,4.2,1.54,6.56
18.817954063415527,4.95,3.89,1.08,6.38
18.81940793991089,4.71,3.5,0.59,5.89
18.820560932159424,4.02,3.3,0.38,5.21
18.830918788909912,3.06,3.21,0.27,4.44
18.834282875061035,2.29,2.97,0.34,3.76
18.847152948379517,1.87,2.6,0.54,3.24
18.85459280014038,1.6,2.3,0.65,2.87
18.86527991294861,1.38,2.07,0.78,2.6
18.874910831451416,1.21,1.92,0.96,2.46
18.885701894760132,1.09,1.79,1.13,2.38
18.919354915618896,1.07,1.57,1.27,2.28
18.920877933502197,0.95,1.39,1.55,2.28
18.921910762786865,0.84,1.23,1.74,2.29
18.930280923843384,0.8,0.94,1.9,2.26
18.93495488166809,0.85,0.54,2.01,2.24
18.94610595703125,0.82,0.13,2.09,2.24
18.954994916915894,0.69,-0.13,2.06,2.17
18.96515989303589,0.56,-0.38,2.06,2.16
18.976008892059326,0.52,-0.68,1.86,2.04
18.98617196083069,0.58,-1.03,1.75,2.11
19.021193981170654,0.71,-1.31,1.78,2.32
19.022784948349,0.84,-1.56,1.67,2.43
19.023919105529785,1.02,-1.9,1.56,2.66
19.030285835266113,1.25,-2.26,1.46,2.96
19.035186767578125,1.4,-2.62,1.37,3.27
19.045330047607422,1.36,-2.89,1.32,3.45
19.055771827697754,1.18,-3.08,1.31,3.54
19.065610885620117,0.95,-3.31,1.35,3.69
19.076723098754883,0.63,-3.67,1.32,3.95
19.08714199066162,0.21,-4.01,1.16,4.17
19.121609926223755,-0.35,-4.24,0.86,4.34
19.123199939727783,-0.99,-4.37,0.52,4.51
19.12439489364624,-1.62,-4.47,0.22,4.75
19.130440950393677,-2.11,-4.7,-0.07,5.15
19.135799884796143,-2.48,-5.03,-0.23,5.61
19.146549940109253,-2.64,-5.38,-0.35,6.0
19.156042098999023,-2.64,-5.77,-0.39,6.35
19.166088104248047,-2.54,-6.21,-0.41,6.72
19.176798820495605,-2.38,-6.65,-0.41,7.07
19.186904907226562,-2.27,-7.0,-0.4,7.36
19.220051765441895,-2.25,-7.23,-0.33,7.57
19.22163677215576,-2.32,-7.26,-0.23,7.62
19.22279191017151,-2.4,-7.16,-0.18,7.55
19.230426788330078,-2.31,-7.07,-0.22,7.44
19.236366987228394,-1.99,-6.96,-0.37,7.24
19.246707916259766,-1.6,-6.9,-0.47,7.09
19.256831884384155,-1.24,-6.87,-0.51,6.99
19.26738691329956,-0.98,-6.84,-0.44,6.92
19.2774600982666,-0.69,-6.77,-0.23,6.8
19.287749767303467,-0.03,-6.79,-0.03,6.79
19.31976890563965,0.99,-7.02,0.04,7.08
19.321366786956787,2.08,-7.28,-0.16,7.57
19.32251501083374,2.88,-7.38,-0.36,7.93
19.330502033233643,3.02,-7.17,-0.54,7.79
19.337017059326172,2.59,-6.56,-0.57,7.07
19.34708309173584,1.87,-5.69,-0.33,5.99
19.357518911361694,1.25,-4.92,0.02,5.07
19.367641925811768,0.82,-4.4,0.17,4.47
19.378094911575317,0.75,-4.12,0.24,4.19
19.388107776641846,1.1,-4.07,0.42,4.23
19.422626972198486,1.47,-4.19,0.57,4.47
19.424190998077393,1.85,-4.43,0.67,4.84
19.425376892089844,2.15,-4.68,0.77,5.2
19.43058681488037,2.32,-4.85,0.79,5.43
19.437899112701416,2.34,-4.88,0.58,5.44
19.44776678085327,2.17,-4.87,0.21,5.33
19.458622932434082,1.78,-4.75,-0.12,5.07
19.468435764312744,1.15,-4.44,-0.35,4.59
19.478861808776855,0.5,-4.05,-0.47,4.1
19.488752841949463,0.03,-3.66,-0.42,3.68
19.52326011657715,-0.29,-3.23,-0.32,3.25
19.524856090545654,-0.57,-2.75,-0.24,2.81
19.5260329246521,-0.68,-2.25,-0.11,2.35
19.530699968338013,-0.62,-1.79,-0.05,1.89
19.546403884887695,-0.55,-1.32,0.04,1.43
19.548176765441895,-0.49,-0.87,0.12,1.0
19.561750888824463,-0.43,-0.47,0.14,0.65
19.568542957305908,-0.48,-0.08,0.1,0.49
19.579133987426758,-0.53,0.3,0.07,0.61
19.589258909225464,-0.63,0.63,0.04,0.89
19.625107765197754,-0.65,0.97,0.11,1.17
19.6264910697937,-0.5,1.3,0.2,1.4
19.627640962600708,-0.31,1.53,0.26,1.58
19.631115913391113,-0.01,1.66,0.37,1.7
19.638651847839355,0.35,1.73,0.61,1.86
19.649123907089233,0.66,1.82,0.81,2.09
19.659303903579712,0.86,1.89,0.96,2.28
19.668839931488037,1.05,1.97,1.03,2.45
19.679358959197998,1.39,2.07,1.03,2.69
19.689847946166992,1.83,2.22,1.01,3.04
19.720901012420654,2.27,2.42,1.02,3.47
19.7224760055542,2.67,2.74,1.08,3.97
19.72362995147705,3.11,3.2,1.13,4.6
19.730782985687256,3.49,3.8,1.14,5.28
19.739929914474487,3.82,4.4,1.19,5.94
19.74968910217285,4.18,4.95,1.4,6.62
19.759974002838135,4.48,5.45,1.59,7.23
19.770909786224365,4.69,5.85,1.91,7.73
19.7806658744812,4.77,6.22,2.25,8.15
19.79052209854126,4.62,6.49,2.52,8.35
19.825961112976074,4.31,6.65,2.8,8.4
19.827488899230957,3.96,6.65,3.04,8.31
19.828577041625977,3.64,6.52,3.19,8.12
19.83117699623108,3.33,6.33,3.25,7.85
19.84024477005005,3.03,6.25,3.33,7.7
19.85011577606201,2.81,6.24,3.5,7.68
19.860299110412598,2.73,6.26,3.62,7.72
19.870896816253662,2.84,6.29,3.64,7.8
19.881864070892334,3.11,6.32,3.44,7.83
19.890790939331055,3.45,6.31,3.03,7.8
19.92253303527832,3.8,6.12,2.49,7.62
19.92414379119873,4.18,5.64,1.93,7.28
19.925349950790405,4.63,5.04,1.56,7.01
19.930903911590576,5.05,4.66,1.5,7.03
19.940896034240723,5.33,4.61,1.85,7.28
19.950629949569702,5.59,4.75,2.33,7.69
19.961115837097168,5.88,4.96,2.77,8.17
19.97117280960083,5.94,5.24,3.18,8.53
19.98194694519043,5.86,5.28,3.29,8.54
19.99181604385376,5.95,4.93,3.22,8.37
20.0246479511261,5.98,4.5,3.14,8.11
20.026282787322998,5.76,4.17,3.06,7.74
20.027443885803223,5.43,3.89,2.91,7.28
20.031424045562744,5.34,3.37,2.75,6.88
20.041423797607422,5.5,2.72,2.57,6.65
20.051218032836914,5.58,2.13,2.33,6.41
20.061767101287842,5.52,1.63,2.07,6.11
20.07205104827881,5.38,1.13,1.81,5.78
20.082379817962646,5.18,0.58,1.59,5.44
20.092607975006104,4.87,0.03,1.4,5.06
20.127782821655273,4.32,-0.39,1.24,4.51
20.12931203842163,3.6,-0.7,1.05,3.81
20.130309104919434,2.91,-1.0,1.02,3.24
20.15030288696289,2.28,-1.28,1.07,2.82
20.152100086212158,1.74,-1.62,1.0,2.57
20.163707971572876,1.27,-2.0,0.85,2.51
20.165491104125977,0.87,-2.34,0.61,2.56
20.17854595184326,0.5,-2.59,0.55,2.69
20.182612895965576,0.23,-2.79,0.52,2.84
20.19576597213745,-0.09,-3.05,0.58,3.1
20.22628402709961,-0.38,-3.35,0.87,3.48
20.227802991867065,-0.45,-3.51,1.3,3.76
20.22894811630249,-0.38,-3.56,1.49,3.87
20.232604026794434,-0.26,-3.74,1.31,3.97
20.24241876602173,-0.17,-3.96,1.11,4.11
20.252734899520874,-0.35,-4.01,1.0,4.14
20.262407779693604,-0.5,-4.02,1.02,4.17
20.272986888885498,-0.38,-4.24,1.04,4.38
20.283272981643677,-0.25,-4.53,0.96,4.63
20.2937068939209,-0.22,-4.8,0.8,4.87
20.32753276824951,-0.29,-5.07,0.77,5.13
20.32908296585083,-0.51,-5.3,0.89,5.39
20.330235958099365,-0.87,-5.42,0.96,5.57
20.350146770477295,-1.22,-5.53,1.15,5.77
20.350916862487793,-1.53,-5.69,1.33,6.04
20.364881992340088,-1.87,-5.83,1.4,6.28
20.367190837860107,-2.08,-5.99,1.36,6.48
20.37935996055603,-2.13,-6.3,1.22,6.76
20.38396978378296,-2.06,-6.72,1.02,7.1
20.396939992904663,-1.97,-7.11,0.85,7.42
20.429079055786133,-1.87,-7.47,0.68,7.73
20.430656909942627,-1.9,-7.73,0.53,7.97
20.43179178237915,-2.17,-7.82,0.5,8.13
20.45032501220703,-2.53,-7.68,0.59,8.1
20.451213836669922,-2.75,-7.55,0.68,8.06
20.46481490135193,-2.69,-7.53,0.67,8.02
20.466845989227295,-2.1,-7.71,0.65,8.01
20.482923984527588,-1.24,-8.08,0.51,8.19
20.485487937927246,-0.76,-8.36,0.28,8.39
20.49638295173645,-0.64,-8.25,0.22,8.27
20.52459692955017,-0.54,-7.93,0.5,7.96
20.526202917099,-0.35,-7.67,0.69,7.7
20.52735996246338,-0.14,-7.42,0.72,7.45
20.534066915512085,0.04,-7.12,0.75,7.15
20.547167778015137,0.08,-6.73,0.72,6.76
20.554080963134766,-0.07,-6.29,0.77,6.33
20.56452178955078,-0.12,-5.85,0.9,5.92
20.57508611679077,0.03,-5.44,1.05,5.54
20.58545207977295,0.33,-5.1,1.19,5.24
20.59554100036621,0.85,-4.88,1.28,5.11
20.629909992218018,1.53,-4.82,1.18,5.19
20.631239891052246,2.27,-4.82,1.0,5.42
20.63231086730957,2.88,-4.8,0.81,5.65
20.65049982070923,3.28,-4.71,0.53,5.76
20.65135383605957,3.36,-4.52,0.26,5.63
20.66404390335083,3.1,-4.21,-0.06,5.22
20.665936946868896,2.61,-3.88,-0.4,4.69
20.67951202392578,2.15,-3.62,-0.71,4.26
20.685590982437134,1.63,-3.42,-0.94,3.9
20.696708917617798,1.02,-3.21,-1.06,3.53
20.732906818389893,0.42,-2.99,-1.01,3.18
20.734529972076416,-0.11,-2.74,-0.73,2.83
20.735711097717285,-0.42,-2.46,-0.4,2.52
20.750600814819336,-0.51,-2.24,-0.16,2.3
20.75152587890625,-0.59,-1.97,-0.03,2.05
20.764518976211548,-0.66,-1.66,0.0,1.78
20.766279935836792,-0.66,-1.38,-0.07,1.53
20.779505968093872,-0.65,-1.1,-0.21,1.29
20.78627586364746,-0.56,-0.75,-0.37,1.0
20.7966628074646,-0.44,-0.47,-0.72,0.96
20.83153200149536,-0.21,-0.19,-0.91,0.95
20.833117961883545,0.05,0.22,-0.86,0.88
20.834271907806396,0.43,0.46,-0.59,0.86
20.850059032440186,0.92,0.54,0.06,1.06
20.85128402709961,1.25,0.88,0.77,1.71
20.864983081817627,1.49,1.27,1.25,2.32
20.866851806640625,1.86,1.67,1.73,3.03
20.879509925842285,2.31,2.2,2.23,3.89
20.886643886566162,2.65,2.69,2.52,4.53
20.899398803710938,2.9,3.12,2.57,4.97
20.92965793609619,3.15,3.49,2.5,5.32
20.931225776672363,3.39,3.81,2.33,5.6
20.932373046875,3.61,4.11,2.22,5.9
20.950764894485474,3.68,4.47,2.18,6.18
20.95161485671997,3.58,4.96,2.14,6.48
20.963736057281494,3.51,5.38,2.02,6.73
20.967082977294922,3.51,5.71,1.96,6.98
20.9795880317688,3.58,5.92,1.94,7.18
20.987611770629883,3.77,6.01,2.08,7.39
20.997854948043823,3.94,6.03,2.4,7.59
21.0326828956604,4.02,6.11,2.65,7.77
21.034296989440918,4.06,6.2,2.9,7.95
21.035444974899292,4.11,6.27,3.05,8.09
21.050617933273315,4.26,6.37,3.08,8.25
21.051764965057373,4.38,6.51,3.08,8.42
21.06359577178955,4.36,6.67,2.98,8.5
21.067820072174072,4.3,6.75,2.78,8.47
21.07976794242859,4.47,6.61,2.57,8.38
21.08796191215515,5.01,6.08,2.39,8.23
21.098270893096924,5.68,5.5,2.36,8.25
21.134763956069946,6.18,5.38,2.63,8.6
21.136341094970703,6.58,5.47,3.01,9.07
21.137508869171143,7.09,5.74,3.42,9.74
21.14925789833069,7.29,6.13,3.71,10.22
21.150426864624023,6.97,6.45,3.85,10.24
21.163935899734497,6.67,6.35,3.71,9.92
21.1680850982666,6.63,5.78,3.38,9.42
21.180173873901367,6.51,5.11,2.99,8.79
21.188759803771973,6.07,4.58,2.8,8.1
21.19878101348877,5.57,4.13,2.79,7.47
21.231823921203613,5.27,3.67,2.87,7.03
21.233376026153564,5.04,3.16,2.91,6.62
21.234524965286255,4.8,2.65,2.89,6.19
21.250979900360107,4.5,2.18,2.9,5.78
21.25217580795288,4.18,1.78,2.78,5.32
21.26365089416504,3.79,1.38,2.59,4.79
21.268723964691162,3.34,1.02,2.36,4.21
21.28002405166626,2.84,0.7,2.06,3.57
21.28912591934204,2.42,0.31,1.75,3.0
21.29944086074829,2.01,-0.12,1.48,2.49
21.334794998168945,1.63,-0.47,1.18,2.06
21.336386919021606,1.37,-0.84,0.94,1.86
21.33755111694336,1.21,-1.1,0.75,1.79
21.349982976913452,1.09,-1.31,0.56,1.79
21.3510639667511,1.02,-1.52,0.36,1.86
21.365104913711548,0.91,-1.6,0.16,1.84
21.36924982070923,0.84,-1.67,0.15,1.87
21.380395889282227,0.96,-1.87,0.25,2.11
21.38978385925293,1.09,-2.19,0.32,2.46
21.40005588531494,1.06,-2.53,0.43,2.77
21.43540906906128,0.95,-2.81,0.55,3.01
21.43701696395874,0.75,-3.02,0.67,3.18
21.438174962997437,0.55,-3.24,0.72,3.36
21.44981598854065,0.5,-3.6,0.81,3.72
21.45102596282959,0.47,-3.92,0.95,4.06
21.466546058654785,0.28,-4.22,1.07,4.36
21.469981908798218,0.12,-4.49,1.14,4.63
21.47987699508667,-0.02,-4.8,1.11,4.92
21.49009609222412,-0.2,-5.08,1.05,5.19
21.5003080368042,-0.55,-5.31,1.03,5.43
21.532609939575195,-0.94,-5.55,1.03,5.72
21.533906936645508,-1.24,-5.81,1.04,6.03
21.53507900238037,-1.49,-6.12,1.05,6.38
21.55125379562378,-1.65,-6.47,1.02,6.75
21.552453994750977,-1.72,-6.85,0.93,7.12
21.565054893493652,-1.76,-7.22,0.78,7.47
21.57041883468628,-1.85,-7.54,0.57,7.78
21.58080792427063,-2.05,-7.75,0.35,8.02
21.591492891311646,-2.23,-7.85,0.23,8.16
21.601501941680908,-2.47,-7.86,0.17,8.24
21.636013984680176,-2.71,-7.72,0.19,8.18
21.637589931488037,-2.72,-7.6,0.26,8.07
21.63878107070923,-2.64,-7.56,0.24,8.01
21.640911102294922,-2.69,-7.37,0.14,7.84
21.650778770446777,-2.64,-7.11,0.01,7.58
21.660709857940674,-2.04,-7.02,-0.23,7.31
21.671027898788452,-0.95,-7.23,-0.62,7.31
21.681180953979492,0.08,-7.52,-1.22,7.61
21.691653966903687,0.6,-7.66,-1.67,7.86
21.70153284072876,0.77,-7.55,-1.81,7.8
21.73485493659973,0.73,-7.26,-1.62,7.47
21.736273765563965,0.72,-6.89,-1.15,7.02
21.737421989440918,0.8,-6.41,-0.66,6.49
21.75138807296753,1.0,-5.96,-0.22,6.04
21.752546787261963,1.38,-5.6,0.25,5.77
21.7641921043396,1.98,-5.38,0.47,5.75
21.771591901779175,2.61,-5.33,0.61,5.96
21.781961917877197,3.18,-5.33,0.63,6.23
21.792591094970703,3.59,-5.31,0.56,6.43
21.802634954452515,3.61,-5.14,0.36,6.29
21.837217807769775,3.36,-4.9,0.05,5.94
21.838798999786377,3.12,-4.66,-0.23,5.61
21.839958906173706,2.99,-4.42,-0.53,5.36
21.849775791168213,2.85,-4.16,-0.92,5.12
21.85208511352539,2.57,-3.85,-1.38,4.83
21.863969802856445,2.26,-3.56,-1.71,4.55
21.87242078781128,1.95,-3.35,-1.92,4.32
21.882170915603638,1.63,-3.2,-1.93,4.07
21.893014907836914,1.28,-2.97,-1.79,3.69
21.90328311920166,0.94,-2.69,-1.53,3.23
21.93588876724243,0.71,-2.39,-1.12,2.73
21.9375,0.6,-2.06,-0.73,2.26
21.9386568069458,0.48,-1.69,-0.51,1.82
21.948527812957764,0.42,-1.34,-0.36,1.44
21.952757835388184,0.31,-1.03,-0.19,1.09
21.96433687210083,0.23,-0.77,-0.13,0.81
21.972715854644775,0.13,-0.55,-0.05,0.56
21.982966899871826,-0.03,-0.31,-0.03,0.31
21.99370288848877,-0.18,0.01,-0.01,0.18
22.003772974014282,-0.28,0.4,-0.05,0.49
22.038004875183105,-0.13,0.54,0.07,0.55
22.039601802825928,0.11,0.69,0.49,0.85
22.04076099395752,0.21,0.96,0.95,1.36
22.04905080795288,0.26,1.35,1.23,1.84
22.053281784057617,0.31,1.66,1.32,2.14
22.064379930496216,0.44,1.81,1.47,2.37
22.073433876037598,0.58,1.96,1.62,2.6
22.083356857299805,0.79,2.12,1.65,2.8
22.094329833984375,1.16,2.33,1.55,3.02
22.10457706451416,1.51,2.59,1.36,3.29
22.13810396194458,1.75,3.02,1.22,3.69
22.139708995819092,1.94,3.54,1.08,4.17
22.140860080718994,2.13,4.09,1.02,4.72
22.143505096435547,2.28,4.57,0.91,5.18
22.15399193763733,2.41,4.94,0.84,5.56
22.163875102996826,2.6,5.2,0.97,5.89
22.17418599128723,2.79,5.42,1.24,6.22
22.184385776519775,2.97,5.6,1.51,6.51
22.194814920425415,3.18,5.69,1.75,6.74
22.204740047454834,3.33,5.69,1.97,6.88
22.24034094810486,3.49,5.59,2.17,6.93
22.241926908493042,3.52,5.63,2.4,7.06
22.24311399459839,3.5,5.76,2.62,7.23
22.248626947402954,3.52,5.93,2.8,7.44
22.25418496131897,3.61,6.17,2.95,7.73
22.26472496986389,3.87,6.32,3.03,8.0
22.274693965911865,4.15,6.43,2.94,8.19
22.284544944763184,4.45,6.45,2.8,8.32
22.295285940170288,4.89,6.23,2.62,8.34
22.305543899536133,5.39,5.75,2.51,8.27
22.339305877685547,5.86,5.27,2.58,8.29
22.340919017791748,6.12,5.13,2.87,8.48
22.342065811157227,6.21,5.22,3.31,8.76
22.348755836486816,6.26,5.37,3.71,9.04
22.35476303100586,6.15,5.51,4.02,9.18
22.365156888961792,5.8,5.56,4.23,9.08
22.375319004058838,5.41,5.31,4.28,8.7
22.38548183441162,5.15,4.89,4.4,8.35
22.395959854125977,4.86,4.37,4.54,7.95
22.406094074249268,4.5,3.94,4.8,7.66
22.440526962280273,4.28,3.61,5.09,7.56
22.442284107208252,4.32,3.24,5.33,7.58
22.443438053131104,4.52,2.84,5.34,7.55
22.448856830596924,4.69,2.49,5.17,7.41
22.45590591430664,4.72,2.21,4.84,7.11
22.465800762176514,4.75,1.84,4.38,6.71
22.476398944854736,4.77,1.43,3.93,6.34
22.486720085144043,4.6,1.05,3.49,5.86
22.49723196029663,4.24,0.77,3.15,5.33
22.50626277923584,3.83,0.51,2.84,4.79
22.5396249294281,3.5,0.19,2.45,4.27
22.54121494293213,3.27,-0.23,2.06,3.87
22.54236078262329,2.98,-0.67,1.71,3.5
22.549027919769287,2.67,-1.09,1.4,3.2
22.555945873260498,2.3,-1.46,0.92,2.87
22.56638193130493,1.82,-1.81,0.48,2.61
22.57682704925537,1.36,-2.14,0.31,2.55
22.586618900299072,0.93,-2.36,0.23,2.54
22.597158908843994,0.54,-2.58,0.09,2.63
22.607189893722534,0.2,-2.93,-0.05,2.93
22.640959978103638,-0.1,-3.27,-0.1,3.27
22.64254093170166,-0.44,-3.55,-0.05,3.57
22.643703937530518,-0.74,-3.88,0.03,3.95
22.649102926254272,-0.88,-4.33,0.14,4.42
22.65688395500183,-0.97,-4.79,0.33,4.89
22.666582107543945,-1.1,-5.12,0.43,5.25
22.677395820617676,-1.23,-5.35,0.51,5.51
22.6875159740448,-1.24,-5.5,0.6,5.66
22.697447776794434,-1.2,-5.65,0.67,5.81
22.707851886749268,-1.29,-5.77,0.53,5.93
22.743456840515137,-1.52,-5.8,0.36,6.0
22.744969844818115,-1.84,-5.77,0.18,6.05
22.746129035949707,-2.21,-5.67,-0.03,6.08
22.749366998672485,-2.42,-5.61,-0.21,6.11
22.757179975509644,-2.48,-5.74,-0.41,6.26
22.7674241065979,-2.45,-5.96,-0.56,6.46
22.7780659198761,-2.32,-6.28,-0.68,6.72
22.788111925125122,-2.2,-6.69,-0.74,7.08
22.79816484451294,-2.12,-7.09,-0.75,7.43
22.80869483947754,-2.07,-7.4,-0.69,7.71
22.84284210205078,-2.12,-7.59,-0.55,7.89
22.844445943832397,-2.27,-7.67,-0.33,8.0
22.84560799598694,-2.48,-7.62,-0.07,8.01
22.849538803100586,-2.59,-7.48,0.19,7.91
22.858038902282715,-2.27,-7.44,0.4,7.78
22.868058919906616,-1.29,-7.73,0.41,7.84
22.878108024597168,-0.16,-8.23,0.09,8.23
22.888712882995605,0.49,-8.53,-0.25,8.54
22.89863681793213,0.73,-8.46,-0.22,8.49
22.909034967422485,0.95,-8.17,0.17,8.22
22.94502305984497,1.11,-7.83,0.5,7.92
22.946619987487793,0.92,-7.33,0.75,7.42
22.94780683517456,0.49,-6.78,0.86,6.85
22.966835021972656,0.14,-6.31,0.78,6.35
22.96807599067688,-0.09,-5.97,0.53,5.99
22.98164391517639,-0.18,-5.74,0.3,5.75
22.98342490196228,0.09,-5.67,0.07,5.67
22.997339963912964,0.62,-5.81,-0.23,5.84
22.999823093414307,1.24,-6.02,-0.44,6.16
23.013920783996582,1.8,-6.13,-0.57,6.41
23.041563987731934,2.18,-6.04,-0.73,6.46
23.043147087097168,2.4,-5.8,-0.9,6.34
23.044311046600342,2.3,-5.4,-1.07,5.96
23.049313068389893,1.9,-4.84,-1.17,5.32
23.05920696258545,1.4,-4.23,-1.16,4.6
23.06946086883545,1.02,-3.58,-0.88,3.82
23.079577922821045,0.72,-2.99,-0.57,3.12
23.08999991416931,0.52,-2.54,-0.39,2.62
23.099936962127686,0.39,-2.14,-0.25,2.18
23.11023187637329,0.29,-1.72,-0.08,1.74
23.144203901290894,0.24,-1.25,0.13,1.27
23.14580988883972,0.31,-0.8,0.33,0.91
23.146965980529785,0.34,-0.35,0.41,0.63
23.149544954299927,0.31,0.07,0.39,0.5
23.159833908081055,0.27,0.46,0.3,0.61
23.16975998878479,0.26,0.83,0.19,0.89
23.179837942123413,0.22,1.13,0.03,1.15
23.190180778503418,0.22,1.3,-0.09,1.32
23.20048689842224,0.32,1.3,0.04,1.33
23.210525035858154,0.54,1.2,0.25,1.33
23.24309778213501,0.75,1.07,0.41,1.36
23.244648933410645,0.88,0.9,0.61,1.39
23.245670795440674,0.96,0.76,0.99,1.57
23.250099897384644,1.03,0.65,1.41,1.86
23.260337829589844,1.07,0.64,1.77,2.16
23.270183086395264,1.03,0.84,2.14,2.51
23.28067684173584,0.95,1.18,2.51,2.93
23.290733814239502,0.9,1.63,2.9,3.44
23.30100679397583,1.05,2.16,3.19,3.99
23.31166410446167,1.47,2.59,3.29,4.43
23.344769954681396,2.02,2.97,3.35,4.91
23.34633207321167,2.57,3.45,3.45,5.51
23.34751605987549,2.89,4.11,3.54,6.14
23.368525981903076,3.04,4.78,3.55,6.68
23.36973810195923,3.17,5.32,3.49,7.1
23.38234806060791,3.3,5.7,3.4,7.41
23.384050846099854,3.44,5.89,3.27,7.56
23.397511959075928,3.6,5.97,3.16,7.65
23.40184783935547,3.72,5.96,3.02,7.64
23.414576053619385,3.76,5.89,2.96,7.58
23.44646978378296,3.95,5.83,3.01,7.65
23.448057889938354,4.23,5.82,3.13,7.84
23.449184894561768,4.53,5.88,3.22,8.09
23.468605041503906,4.92,6.02,3.25,8.42
23.46984577178955,5.32,6.22,3.23,8.79
23.48303198814392,5.59,6.46,3.12,9.09
23.48482608795166,5.88,6.49,2.93,9.23
23.501344919204712,6.4,6.19,2.72,9.3
23.50345492362976,6.94,5.89,2.57,9.45
23.514546871185303,7.17,5.94,2.6,9.66
23.543285846710205,7.22,6.16,2.8,9.89
23.54478883743286,7.22,6.39,2.86,10.05
23.545866012573242,7.01,6.62,2.66,10.0
23.55220079421997,6.63,6.51,2.24,9.55
23.5621018409729,6.31,5.9,1.57,8.78
23.572134017944336,6.06,5.03,0.91,7.92
23.58247709274292,5.52,4.23,0.5,6.97
23.59287977218628,4.82,3.64,0.4,6.05
23.60280179977417,4.23,3.26,0.52,5.36
23.613598823547363,3.55,3.02,0.88,4.74
23.647260904312134,2.88,2.89,1.27,4.27
23.64863681793213,2.34,2.72,1.51,3.89
23.649736881256104,1.92,2.48,1.51,3.48
23.65237283706665,1.53,2.17,1.44,3.02
23.663007974624634,1.12,1.82,1.22,2.46
23.672537803649902,0.72,1.44,1.06,1.92
23.68309211730957,0.34,1.12,0.94,1.5
23.692991971969604,-0.1,0.86,0.83,1.19
23.703598976135254,-0.42,0.62,0.71,1.03
23.71393895149231,-0.5,0.27,0.6,0.82
23.747285842895508,-0.39,-0.14,0.54,0.68
23.74890398979187,-0.33,-0.45,0.51,0.75
23.750058889389038,-0.23,-0.66,0.58,0.9
23.7685489654541,-0.01,-0.79,0.71,1.06
23.76940679550171,0.37,-0.9,0.85,1.29
23.781529903411865,0.9,-1.01,0.98,1.67
23.783506870269775,1.55,-1.11,0.94,2.12
23.797709941864014,2.14,-1.24,0.88,2.62
23.80402708053589,2.46,-1.44,0.93,2.99
23.815011024475098,2.55,-1.74,1.03,3.25
23.8468759059906,2.42,-2.09,1.16,3.4
23.848473072052002,2.21,-2.4,1.44,3.56
23.84962797164917,2.03,-2.65,1.65,3.72
23.868802070617676,1.89,-2.93,1.69,3.87
23.869475841522217,1.6,-3.25,1.65,3.98
23.8819899559021,1.24,-3.53,1.64,4.08
23.884366035461426,0.86,-3.81,1.66,4.24
23.897244930267334,0.44,-4.13,1.74,4.5
23.904550075531006,0.0,-4.45,1.86,4.82
23.9148850440979,-0.42,-4.76,1.97,5.16
23.947554111480713,-0.76,-5.12,2.03,5.55
23.949556827545166,-0.91,-5.56,2.14,6.02
23.95069694519043,-0.99,-6.02,2.24,6.49
23.968902111053467,-1.13,-6.48,2.29,6.96
23.97003984451294,-1.28,-6.93,2.22,7.38
23.982409954071045,-1.51,-7.3,2.1,7.74
23.984694957733154,-1.88,-7.51,1.98,7.99
23.997241020202637,-2.38,-7.62,1.82,8.18
24.0051429271698,-2.96,-7.63,1.67,8.35
24.015417098999023,-3.46,-7.57,1.49,8.45
24.048448085784912,-3.65,-7.51,1.21,8.43
24.050046920776367,-3.32,-7.63,0.83,8.36
24.05119800567627,-2.52,-8.03,0.47,8.42
24.069416999816895,-1.72,-8.43,0.1,8.6
24.070616960525513,-1.29,-8.5,-0.14,8.59
24.081771850585938,-1.07,-8.22,-0.14,8.29
24.085383892059326,-0.85,-7.77,-0.07,7.81
24.09782099723816,-0.63,-7.25,0.16,7.27
24.1057710647583,-0.18,-6.92,0.4,6.93
24.116082906723022,0.39,-6.69,0.59,6.72
24.151655912399292,0.77,-6.31,0.76,6.4
24.153279781341553,0.92,-5.76,1.06,5.92
24.154436111450195,1.04,-5.22,1.3,5.47
24.169372081756592,1.26,-4.79,1.29,5.11
24.17054295539856,1.69,-4.63,1.03,5.03
24.18308401107788,2.22,-4.65,0.62,5.18
24.185873985290527,2.7,-4.69,0.16,5.41
24.197840929031372,3.07,-4.72,-0.27,5.63
24.206356048583984,3.24,-4.69,-0.75,5.74
24.216636896133423,3.02,-4.58,-1.17,5.6
24.251070976257324,2.44,-4.39,-1.48,5.23
24.252686023712158,1.65,-4.16,-1.72,4.79
24.253868103027344,0.88,-3.95,-1.81,4.43
24.268102884292603,0.06,-3.76,-1.78,4.16
24.269295930862427,-0.76,-3.58,-1.64,4.01
24.283288955688477,-1.47,-3.38,-1.32,3.91
24.28671407699585,-1.98,-3.2,-0.96,3.88
24.297631978988647,-2.29,-3.02,-0.65,3.84
24.30722188949585,-2.41,-2.87,-0.44,3.77
24.317214012145996,-2.44,-2.7,-0.29,3.65
24.3498477935791,-2.38,-2.47,-0.24,3.43
24.351438999176025,-2.23,-2.21,-0.07,3.14
24.352534770965576,-2.04,-1.94,-0.07,2.81
24.369221925735474,-1.84,-1.7,-0.16,2.51
24.37047791481018,-1.58,-1.45,-0.25,2.15
24.382708072662354,-1.17,-1.19,-0.14,1.67
24.387290000915527,-0.58,-0.86,0.19,1.05
24.398137092590332,0.23,-0.43,0.52,0.71
24.4074969291687,0.98,0.03,0.73,1.22
24.417829036712646,1.54,0.4,0.82,1.78
24.453402996063232,1.87,0.65,0.78,2.12
24.454986095428467,2.06,0.88,0.73,2.35
24.45612907409668,2.14,1.19,0.63,2.52
24.467824935913086,2.17,1.58,0.59,2.74
24.46902298927307,2.22,1.98,0.61,3.03
24.483259916305542,2.48,2.26,0.62,3.41
24.48780393600464,2.78,2.62,0.71,3.88
24.50068998336792,2.95,3.0,0.75,4.27
24.50778102874756,3.12,3.37,0.88,4.67
24.518022060394287,3.3,3.79,1.01,5.12
24.54741597175598,3.46,4.13,1.19,5.51
24.549012899398804,3.61,4.38,1.34,5.83
24.550164937973022,3.7,4.52,1.54,6.04
24.569168090820312,3.71,4.67,1.7,6.2
24.57023000717163,3.71,4.85,1.88,6.38
24.58302402496338,3.84,5.06,2.03,6.66
24.58824110031128,4.06,5.33,2.13,7.03
24.59886407852173,4.2,5.67,2.18,7.38
24.608966827392578,4.25,6.05,2.22,7.71
24.61887502670288,4.23,6.41,2.05,7.94
24.65275001525879,4.23,6.64,1.83,8.08
24.654335975646973,4.33,6.68,1.67,8.13
24.6554958820343,4.49,6.47,1.47,8.01
24.669298887252808,4.7,6.14,1.41,7.85
24.670578002929688,5.01,5.95,1.51,7.92
24.682828903198242,5.32,6.03,1.95,8.27
24.68891477584839,5.72,6.27,2.53,8.85
24.69923210144043,6.18,6.7,3.0,9.59
24.7094509601593,6.49,7.16,3.16,10.16
24.719327926635742,6.49,7.58,3.01,10.42
24.755623817443848,6.15,7.74,2.67,10.24
24.757129907608032,5.71,7.43,2.16,9.61
24.758280992507935,5.18,6.84,1.6,8.72
24.766689777374268,4.44,6.2,1.44,7.76
24.769038915634155,3.73,5.57,1.68,6.91
24.78245210647583,3.32,4.85,1.89,6.17
24.789380073547363,2.99,4.15,2.14,5.54
24.799824953079224,2.66,3.65,2.47,5.14
24.810426950454712,2.41,3.22,2.62,4.8
24.820039987564087,2.29,2.76,2.62,4.44
24.859983921051025,2.17,2.3,2.46,4.0
24.861517906188965,2.1,1.79,2.14,3.49
24.862658977508545,1.93,1.43,1.99,3.11
24.866193771362305,1.64,1.21,1.9,2.78
24.882944107055664,1.32,1.04,1.84,2.49
24.884727001190186,1.07,0.89,1.81,2.28
24.897643089294434,0.99,0.68,1.68,2.06
24.89994788169861,1.05,0.41,1.53,1.9
24.914822101593018,1.1,0.19,1.33,1.73
24.920714855194092,1.14,-0.01,1.09,1.57
24.958683967590332,1.13,-0.21,0.88,1.44
24.960023880004883,1.02,-0.38,0.72,1.3
24.961204051971436,0.85,-0.61,0.51,1.16
24.96839189529419,0.87,-0.94,0.47,1.36
24.9702467918396,0.92,-1.24,0.6,1.65
24.982846975326538,0.93,-1.52,0.71,1.91
24.990532875061035,0.85,-1.8,0.78,2.13
25.000796794891357,0.77,-2.09,0.79,2.36
25.01134204864502,0.7,-2.4,0.77,2.61
25.02130389213562,0.6,-2.66,0.74,2.82
25.054442882537842,0.49,-2.9,0.67,3.01
25.0560519695282,0.36,-3.17,0.63,3.25
25.05721092224121,0.26,-3.45,0.68,3.52
25.06720781326294,0.16,-3.74,0.8,3.82
25.070746898651123,0.07,-3.98,0.91,4.08
25.08285903930664,-0.01,-4.24,0.99,4.35
25.09136390686035,-0.08,-4.46,1.06,4.58
25.101428985595703,-0.1,-4.7,1.08,4.82
25.11188292503357,-0.15,-5.01,1.03,5.11
25.122385025024414,-0.2,-5.48,0.98,5.57
25.156584978103638,-0.26,-5.97,1.01,6.06
25.158173084259033,-0.36,-6.41,1.05,6.5
25.159307956695557,-0.47,-6.86,1.08,6.96
25.166855812072754,-0.64,-7.21,1.02,7.3
25.171705961227417,-0.94,-7.48,0.92,7.59
25.181993007659912,-1.33,-7.63,0.84,7.79
25.191970825195312,-1.75,-7.68,0.81,7.91
25.20206880569458,-2.03,-7.69,0.74,7.98
25.212617874145508,-2.07,-7.7,0.64,7.99
25.222912788391113,-1.74,-7.8,0.5,8.0
25.258697032928467,-0.92,-8.08,0.11,8.13
25.260293006896973,-0.26,-8.35,-0.46,8.36
25.261493921279907,-0.17,-8.27,-0.92,8.32
25.266782999038696,-0.36,-7.91,-1.13,7.99
25.27204990386963,-0.6,-7.51,-1.16,7.62
25.283126831054688,-0.77,-7.11,-1.16,7.24
25.29259204864502,-0.93,-6.66,-1.07,6.8
25.30235004425049,-1.01,-6.2,-0.95,6.35
25.313206911087036,-0.93,-5.83,-0.81,5.95
25.322832107543945,-0.93,-5.44,-0.59,5.55
25.358917951583862,-0.66,-5.13,-0.34,5.18
25.360507011413574,-0.05,-5.02,-0.06,5.02
25.36170482635498,0.63,-5.0,0.16,5.04
25.36702299118042,1.23,-4.98,0.32,5.13
25.372679948806763,1.82,-4.91,0.45,5.25
25.38291096687317,2.27,-4.86,0.51,5.38
25.393200874328613,2.55,-4.79,0.4,5.44
25.402960777282715,2.39,-4.55,0.13,5.14
25.41379189491272,1.83,-4.09,-0.14,4.48
25.423757076263428,1.22,-3.62,-0.29,3.83
25.457672119140625,0.81,-3.29,-0.34,3.4
25.45925998687744,0.5,-2.98,-0.44,3.05
25.46044397354126,0.2,-2.68,-0.53,2.73
25.46698808670044,0.01,-2.45,-0.36,2.47
25.47314190864563,-0.13,-2.2,0.05,2.2
25.4837749004364,-0.35,-1.91,0.33,1.96
25.49384593963623,-0.45,-1.7,0.45,1.81
25.504045963287354,-0.48,-1.57,0.52,1.72
25.514519929885864,-0.55,-1.39,0.55,1.59
25.524468898773193,-0.53,-1.19,0.57,1.42
25.558307886123657,-0.53,-1.0,0.55,1.25
25.55981683731079,-0.48,-0.8,0.55,1.08
25.56090211868286,-0.38,-0.61,0.58,0.92
25.566778898239136,-0.24,-0.43,0.63,0.79
25.573962926864624,-0.02,-0.29,0.77,0.82
25.584118843078613,0.27,-0.1,0.95,0.99
25.594275951385498,0.53,0.17,1.09,1.22
25.604736804962158,0.72,0.5,1.23,1.51
25.61469793319702,0.95,0.83,1.31,1.81
25.62492799758911,1.28,1.16,1.37,2.2
25.659780025482178,1.55,1.52,1.38,2.57
25.661372900009155,1.82,1.96,1.42,3.02
25.662569999694824,2.13,2.43,1.46,3.54
25.667009830474854,2.42,3.01,1.56,4.16
25.68315291404724,2.65,3.6,1.66,4.76
25.68462896347046,2.87,4.16,1.8,5.36
25.697970867156982,3.09,4.69,1.99,5.95
25.705233097076416,3.24,5.16,2.16,6.46
25.71573305130005,3.37,5.62,2.19,6.9
25.725549936294556,3.57,6.01,2.15,7.31
25.76158094406128,3.8,6.23,2.1,7.59
25.76296377182007,4.18,6.36,2.03,7.87
25.764123916625977,4.56,6.49,1.87,8.14
25.767552852630615,4.73,6.74,1.6,8.38
25.774919033050537,4.96,7.0,1.29,8.67
25.78526496887207,5.26,7.27,1.08,9.03
25.795878887176514,5.58,7.52,0.84,9.4
25.805293083190918,5.89,7.73,0.66,9.74
25.81592893600464,6.13,7.9,0.44,10.0
25.82610511779785,6.41,7.88,0.25,10.16
25.860116004943848,6.85,7.58,0.08,10.21
25.861763954162598,7.39,7.13,-0.02,10.26
25.862929821014404,7.74,6.81,-0.05,10.3
25.86722993850708,8.03,6.63,0.07,10.41
25.882833003997803,8.31,6.52,0.39,10.56
25.885515928268433,8.15,6.57,0.7,10.49
25.898254871368408,7.53,6.61,0.97,10.06
25.906137943267822,6.91,6.4,1.05,9.47
25.916517972946167,6.59,5.8,0.92,8.82
25.926634788513184,6.42,4.9,0.8,8.11
25.962594985961914,6.1,3.95,0.79,7.31
25.96397304534912,5.71,3.08,0.94,6.55
25.965138912200928,5.27,2.42,1.25,5.93
25.98762607574463,4.79,1.89,1.61,5.39
25.98841691017151,4.33,1.52,1.87,4.95
25.99919295310974,3.85,1.25,2.02,4.52
26.000927925109863,3.36,0.94,2.09,4.06
26.015312910079956,3.06,0.56,2.13,3.77
26.017027854919434,2.87,0.09,2.1,3.55
26.032118797302246,2.62,-0.42,1.98,3.31
26.057621955871582,2.33,-0.88,1.87,3.11
26.059218883514404,2.1,-1.36,1.82,3.09
26.0603768825531,1.81,-1.89,1.87,3.21
26.067359924316406,1.35,-2.21,1.81,3.15
26.076963901519775,0.81,-2.4,1.45,2.91
26.08671283721924,0.11,-2.53,1.29,2.84
26.0972638130188,-0.38,-2.48,0.99,2.69
26.10761594772339,-0.72,-2.4,0.34,2.52
26.117820978164673,-1.04,-2.22,-0.29,2.46
26.127575874328613,-1.04,-2.14,-0.63,2.46
26.162802934646606,-0.72,-2.14,-0.78,2.38
26.164309978485107,-0.48,-2.39,-0.93,2.6
26.165491104125977,-0.3,-2.77,-0.84,2.91
26.185166835784912,-0.33,-2.97,-0.46,3.02
26.186965942382812,-0.57,-3.02,-0.02,3.07
26.200268983840942,-0.63,-3.23,0.31,3.3
26.202030897140503,-0.54,-3.6,0.52,3.67
26.21496891975403,-0.44,-3.95,0.69,4.03
26.218085765838623,-0.4,-4.27,0.79,4.36
26.23214292526245,-0.43,-4.59,0.85,4.68
26.262309074401855,-0.61,-4.86,0.85,4.97
26.263782024383545,-0.81,-5.02,0.74,5.13
26.26494598388672,-1.08,-5.23,0.5,5.36
26.26786494255066,-1.37,-5.61,0.17,5.77
26.27812099456787,-1.7,-6.14,-0.03,6.37
26.288346767425537,-2.17,-6.69,0.08,7.03
26.29835295677185,-2.68,-7.2,0.43,7.69
26.30888295173645,-3.05,-7.69,0.89,8.32
26.318970918655396,-3.13,-8.06,1.34,8.74
26.32919406890869,-3.04,-8.31,1.53,8.97
26.367650032043457,-2.99,-8.47,1.59,9.12
26.369122982025146,-2.96,-8.47,1.53,9.1
26.370179891586304,-2.99,-8.37,1.41,8.99
26.38722801208496,-3.05,-8.18,1.15,8.8
26.38839888572693,-2.98,-8.06,0.96,8.64
26.400293827056885,-2.77,-7.87,0.82,8.38
26.402060985565186,-2.17,-7.72,0.36,8.02
26.415709972381592,-0.97,-7.96,-0.28,8.02
26.41975998878479,0.06,-8.3,-0.86,8.34
26.432621955871582,0.51,-8.18,-1.27,8.29
26.459325790405273,0.65,-7.64,-1.33,7.78
26.460853099822998,0.98,-7.1,-1.05,7.24
26.46205496788025,1.18,-6.73,-0.79,6.87
26.469706058502197,1.08,-6.38,-0.75,6.51
26.479496002197266,1.08,-6.11,-0.68,6.24
26.489264965057373,0.95,-5.9,-0.68,6.01
26.49964189529419,0.53,-5.55,-0.79,5.63
26.50997495651245,0.49,-5.31,-0.75,5.38
26.52042293548584,1.06,-5.31,-0.67,5.45
26.53035306930542,1.84,-5.42,-0.67,5.76
26.564937114715576,2.67,-5.41,-0.58,6.06
26.566540956497192,3.31,-5.23,-0.4,6.2
26.56768488883972,3.65,-4.9,-0.36,6.12
26.586791038513184,3.61,-4.5,-0.41,5.78
26.587923049926758,3.15,-4.04,-0.49,5.14
26.600182056427002,2.51,-3.56,-0.55,4.39
26.60198402404785,1.87,-3.14,-0.6,3.7
26.616005897521973,1.33,-2.88,-0.6,3.22
26.620606899261475,0.88,-2.69,-0.49,2.87
26.632917881011963,0.43,-2.45,-0.3,2.5
26.66326379776001,0.05,-2.14,-0.01,2.14
26.664863109588623,-0.02,-1.81,0.3,1.83
26.66599988937378,0.09,-1.47,0.5,1.55
26.687886953353882,0.24,-1.16,0.59,1.32
26.68985080718994,0.37,-0.88,0.65,1.15
26.70193099975586,0.44,-0.55,0.77,1.04
26.703821897506714,0.37,-0.25,0.9,1.0
26.715362071990967,0.18,0.0,0.94,0.95
26.720802783966064,0.02,0.28,0.98,1.01
26.732292890548706,0.08,0.43,1.02,1.1
26.76339101791382,0.23,0.55,1.19,1.33
26.764974117279053,0.44,0.79,1.36,1.63
26.76614809036255,0.69,1.12,1.58,2.05
26.78498411178589,0.99,1.51,1.76,2.52
26.78697681427002,1.29,1.97,1.93,3.04
26.799871921539307,1.66,2.44,2.05,3.59
26.801873922348022,1.95,2.91,2.18,4.12
26.81623411178589,2.28,3.3,2.3,4.62
26.82158899307251,2.64,3.62,2.44,5.1
26.8326997756958,2.82,3.98,2.55,5.5
26.867909908294678,2.93,4.31,2.61,5.82
26.86950993537903,2.94,4.67,2.7,6.14
26.870666027069092,2.91,5.13,2.7,6.48
26.88506507873535,2.88,5.55,2.6,6.77
26.886303901672363,2.92,5.88,2.46,7.01
26.899316787719727,2.93,6.15,2.41,7.22
26.90179681777954,3.01,6.39,2.41,7.46
26.915268898010254,3.18,6.62,2.47,7.74
26.922148942947388,3.39,6.73,2.55,7.95
26.93216609954834,3.7,6.63,2.56,8.01
26.967315912246704,4.07,6.43,2.54,8.02
26.968748092651367,4.3,6.29,2.52,8.02
26.969719886779785,4.53,6.28,2.52,8.14
26.98699378967285,4.73,6.31,2.53,8.28
26.988189935684204,4.88,6.44,2.47,8.44
27.002723932266235,5.04,6.57,2.18,8.56
27.004544973373413,5.15,6.65,1.91,8.62
27.01619791984558,5.31,6.61,1.6,8.62
27.02288293838501,5.68,6.34,1.32,8.61
27.033145904541016,6.15,5.87,1.22,8.58
27.06968092918396,6.5,5.53,1.34,8.63
27.07130193710327,6.71,5.45,1.8,8.82
27.072484016418457,6.83,5.43,2.38,9.04
27.08622694015503,6.66,5.52,2.91,9.12
27.087455987930298,6.14,5.61,3.29,8.94
27.10002088546753,5.66,5.44,3.32,8.52
27.103092908859253,5.57,4.81,3.04,7.96
27.1160249710083,5.69,3.91,2.75,7.43
27.123491764068604,5.78,3.06,2.55,7.01
27.133814811706543,5.88,2.46,2.47,6.83
27.17012310028076,5.99,1.95,2.55,6.79
27.17155885696411,5.99,1.58,2.69,6.75
27.172630786895752,5.8,1.37,2.85,6.6
27.18547296524048,5.29,1.29,2.92,6.17
27.18662977218628,4.63,1.11,2.88,5.56
27.200870990753174,4.05,0.81,2.67,4.91
27.203643798828125,3.4,0.4,2.35,4.15
27.21633791923523,2.78,-0.04,2.08,3.47
27.224105834960938,2.25,-0.53,1.89,2.98
27.234435081481934,1.71,-1.0,1.61,2.55
27.266823768615723,1.18,-1.45,1.31,2.28
27.268367767333984,0.74,-1.83,0.97,2.19
27.269532918930054,0.37,-2.19,0.66,2.31
27.287457942962646,0.06,-2.48,0.5,2.53
27.28868579864502,-0.27,-2.66,0.31,2.69
27.300212860107422,-0.58,-2.82,0.14,2.88
27.30427885055542,-0.77,-2.96,0.05,3.05
27.316298007965088,-0.95,-3.07,-0.06,3.21
27.32470703125,-1.1,-3.23,-0.11,3.41
27.334962844848633,-1.24,-3.37,-0.1,3.59
27.36994695663452,-1.36,-3.48,-0.04,3.73
27.37152910232544,-1.44,-3.61,0.09,3.88
27.372545957565308,-1.44,-3.81,0.28,4.08
27.385924816131592,-1.45,-3.99,0.52,4.27
27.38711977005005,-1.43,-4.13,0.73,4.43
27.400264978408813,-1.38,-4.23,0.82,4.52
27.40514588356018,-1.37,-4.34,0.83,4.62
27.41673493385315,-1.29,-4.51,0.83,4.76
27.425519943237305,-1.17,-4.69,0.89,4.91
27.43522882461548,-1.17,-4.87,0.95,5.09
27.468449115753174,-1.23,-5.06,1.02,5.3
27.47004795074463,-1.45,-5.21,1.24,5.54
27.471214771270752,-1.75,-5.22,1.52,5.71
27.48774003982544,-1.95,-5.3,1.81,5.93
27.48901081085205,-1.91,-5.58,2.05,6.24
27.503296852111816,-1.83,-5.91,2.15,6.54
27.50584888458252,-1.71,-6.34,2.17,6.91
27.516634941101074,-1.58,-6.75,2.18,7.26
27.525919914245605,-1.55,-7.14,2.13,7.61
27.536152839660645,-1.69,-7.5,2.04,7.95
27.570530891418457,-2.0,-7.76,1.99,8.25
27.572120904922485,-2.48,-7.86,2.0,8.48
27.57327890396118,-2.86,-7.78,2.15,8.56
27.585362911224365,-2.98,-7.58,2.24,8.44
27.58659076690674,-2.56,-7.35,1.97,8.02
27.599984884262085,-1.78,-7.35,1.48,7.7
27.605982780456543,-0.93,-7.45,0.6,7.53
27.6161208152771,-0.05,-7.66,-0.27,7.66
27.626718044281006,0.53,-7.82,-0.81,7.87
27.63681983947754,0.66,-7.81,-0.97,7.89
27.66915488243103,0.57,-7.58,-0.63,7.62
27.670762062072754,0.45,-7.22,-0.15,7.23
27.67193078994751,0.08,-6.73,0.36,6.74
27.68723201751709,-0.46,-6.06,0.94,6.14
27.688405990600586,-0.68,-5.32,1.43,5.55
27.70018482208252,-0.39,-4.83,1.71,5.13
27.706751823425293,0.43,-4.79,1.51,5.04
27.717158794403076,1.34,-4.92,1.09,5.21
27.726907968521118,2.01,-4.86,0.74,5.31
27.7373628616333,2.75,-4.73,0.48,5.49
27.77209711074829,3.43,-4.67,0.17,5.79
27.773688793182373,3.7,-4.49,-0.09,5.81
27.77484393119812,3.42,-4.05,-0.37,5.31
27.785472869873047,2.82,-3.5,-0.61,4.53
27.78679394721985,2.15,-3.01,-0.79,3.78
27.80050492286682,1.55,-2.65,-0.9,3.19
27.807122945785522,1.06,-2.33,-0.82,2.68
27.817790031433105,0.72,-2.02,-0.59,2.22
27.82788896560669,0.47,-1.66,-0.34,1.75
27.838037967681885,0.23,-1.33,-0.19,1.36
27.877644062042236,0.09,-1.09,-0.1,1.09
27.87930679321289,0.0,-0.9,-0.01,0.9
27.880470991134644,-0.16,-0.66,0.05,0.68
27.884581089019775,-0.32,-0.39,0.1,0.51
27.900835037231445,-0.42,-0.12,0.03,0.43
27.902622938156128,-0.46,0.14,-0.1,0.49
27.916089057922363,-0.34,0.32,-0.18,0.5
27.917829990386963,-0.22,0.5,-0.03,0.54
27.93298101425171,-0.14,0.76,0.08,0.77
27.93848705291748,-0.04,1.0,0.12,1.0
27.97753596305847,0.07,1.25,0.27,1.28
27.978907108306885,0.25,1.51,0.47,1.6
27.980070114135742,0.45,1.81,0.61,1.96
27.98487901687622,0.79,2.11,0.7,2.35
27.988037109375,1.21,2.39,0.79,2.79
28.001056909561157,1.6,2.7,0.85,3.25
28.008312940597534,1.94,3.01,0.92,3.69
28.01947784423828,2.29,3.33,1.02,4.16
28.02930784225464,2.69,3.67,1.14,4.69
28.03926181793213,3.01,3.99,1.31,5.16
28.072818994522095,3.26,4.33,1.48,5.61
28.074405908584595,3.55,4.65,1.65,6.07
28.075550079345703,3.88,5.0,1.71,6.55
28.085813999176025,4.1,5.35,1.72,6.95
28.08857488632202,4.22,5.76,1.73,7.34
28.10200595855713,4.29,6.15,1.69,7.68
28.108945846557617,4.46,6.45,1.65,8.01
28.11915111541748,4.79,6.53,1.46,8.22
28.130077838897705,5.11,6.41,1.11,8.27
28.139930963516235,5.25,6.32,0.75,8.25
28.173192977905273,5.18,6.39,0.41,8.23
28.17465877532959,4.97,6.51,0.16,8.19
28.17577600479126,4.76,6.6,0.11,8.13
28.185362815856934,4.64,6.58,0.23,8.05
28.1891770362854,4.62,6.41,0.39,7.91
28.20112895965576,4.79,6.1,0.51,7.77
28.209702968597412,5.28,5.51,0.59,7.65
28.219650983810425,6.03,4.68,0.64,7.65
28.2306809425354,6.71,3.99,0.88,7.85
28.240808963775635,7.0,3.78,1.32,8.06
28.274961948394775,6.99,3.91,1.88,8.22
28.27653694152832,6.73,4.22,2.47,8.31
28.27769184112549,6.14,4.63,3.04,8.26
28.284896850585938,5.46,4.89,3.32,8.04
28.290255069732666,5.09,4.83,3.26,7.73
28.30047297477722,5.11,4.49,3.04,7.45
28.310268878936768,5.24,4.08,2.74,7.18
28.320559978485107,5.03,3.76,2.39,6.71
28.33100199699402,4.78,3.3,2.11,6.17
28.3413667678833,4.64,2.78,1.9,5.73
28.37684679031372,4.41,2.33,1.91,5.34
28.37842607498169,4.1,2.1,2.11,5.06
28.379624843597412,3.78,1.95,2.36,4.86
28.384993076324463,3.59,1.78,2.45,4.69
28.390655994415283,3.5,1.49,2.51,4.55
28.401200771331787,3.36,1.18,2.47,4.33
28.411053895950317,3.1,0.87,2.31,3.96
28.42074203491211,2.9,0.44,2.18,3.65
28.43153190612793,2.8,-0.12,2.04,3.46
28.441804885864258,2.65,-0.68,1.84,3.29
28.475156784057617,2.45,-1.22,1.6,3.17
28.476751804351807,2.17,-1.7,1.49,3.13
28.477930068969727,1.88,-2.08,1.46,3.16
28.485774993896484,1.53,-2.44,0.99,3.04
28.49113178253174,1.14,-2.89,0.55,3.15
28.50298500061035,0.79,-3.15,0.5,3.28
28.511528968811035,0.54,-3.21,0.5,3.29
28.521328926086426,0.33,-3.41,0.42,3.45
28.532207012176514,0.09,-3.64,0.36,3.65
28.542236804962158,0.0,-3.84,0.31,3.85
28.576416969299316,0.04,-4.0,0.22,4.0
28.577970027923584,0.07,-4.17,-0.01,4.17
28.57912302017212,0.05,-4.39,-0.18,4.39
28.585423946380615,-0.07,-4.58,-0.36,4.59
28.59169101715088,-0.28,-4.78,-0.59,4.82
28.601696014404297,-0.54,-5.03,-0.79,5.12
28.611732006072998,-0.81,-5.28,-0.89,5.41
28.6226909160614,-1.16,-5.48,-0.95,5.68
28.632874011993408,-1.58,-5.6,-0.91,5.88
28.642698764801025,-1.96,-5.68,-0.73,6.05
28.678639888763428,-2.15,-5.81,-0.52,6.21
28.680191040039062,-2.21,-6.05,-0.27,6.44
28.681346893310547,-2.09,-6.36,-0.02,6.69
28.685192108154297,-1.88,-6.66,0.19,6.92
28.700883865356445,-1.7,-6.99,0.37,7.2
28.702109813690186,-1.63,-7.27,0.53,7.46
28.716217041015625,-1.69,-7.43,0.7,7.65
28.722676992416382,-1.83,-7.51,0.86,7.77
28.73344397544861,-2.15,-7.42,1.07,7.79
28.74320077896118,-2.7,-7.14,1.22,7.73
28.776490926742554,-3.24,-6.75,1.34,7.6
28.777888774871826,-3.69,-6.39,1.37,7.5
28.779051780700684,-3.86,-6.07,1.28,7.3
28.78530788421631,-3.4,-6.04,0.99,7.0
28.7930588722229,-2.3,-6.45,0.58,6.87
28.80279302597046,-1.13,-6.95,0.0,7.04
28.81330394744873,-0.43,-7.23,-0.38,7.25
28.823718070983887,-0.16,-7.21,-0.54,7.23
28.833652019500732,-0.22,-7.04,-0.58,7.06
28.843955993652344,-0.37,-6.81,-0.46,6.83
28.879190921783447,-0.35,-6.51,-0.19,6.52
28.880785942077637,-0.01,-6.19,0.08,6.19
28.881940841674805,0.42,-5.87,0.41,5.89
28.8857638835907,0.79,-5.51,0.74,5.61
28.893495082855225,1.22,-5.11,1.01,5.34
28.904184818267822,1.63,-4.74,1.14,5.14
28.91390299797058,2.11,-4.44,1.11,5.03
28.923649787902832,2.56,-4.13,0.91,4.94
28.93430185317993,2.87,-3.8,0.78,4.82
28.944506883621216,3.09,-3.58,0.46,4.75
28.980874061584473,3.1,-3.35,-0.03,4.56
28.982440948486328,2.8,-3.09,-0.55,4.2
28.983627796173096,2.35,-2.91,-1.13,3.9
29.003841876983643,1.84,-2.98,-1.54,3.82
29.005722045898438,1.3,-3.19,-1.76,3.86
29.018006801605225,0.73,-3.35,-1.9,3.91
29.01979088783264,0.02,-3.38,-1.77,3.81
29.037291049957275,-0.81,-3.21,-1.48,3.62
29.0400071144104,-1.48,-2.92,-1.11,3.45
29.05140495300293,-1.84,-2.56,-0.73,3.23
29.076141834259033,-1.79,-2.22,-0.31,2.86
29.07775592803955,-1.53,-1.9,-0.03,2.43
29.078881978988647,-1.26,-1.56,0.2,2.01
29.086076974868774,-0.96,-1.2,0.27,1.56
29.094758987426758,-0.71,-0.8,0.07,1.07
29.10489296913147,-0.47,-0.44,-0.13,0.65
29.115077018737793,-0.17,-0.13,-0.17,0.27
29.12552499771118,0.14,0.09,0.01,0.16
29.135409832000732,0.44,0.28,0.27,0.58
29.145845890045166,0.68,0.52,0.63,1.06
29.181193828582764,0.84,0.87,0.94,1.53
29.182820796966553,1.1,1.2,1.14,1.98
29.18394899368286,1.38,1.49,1.45,2.49
29.205014944076538,1.71,1.81,1.77,3.05
29.20678186416626,1.99,2.23,1.98,3.58
29.217930793762207,2.28,2.68,2.03,4.06
29.21961784362793,2.57,3.19,2.03,4.57
29.233804941177368,2.85,3.67,2.01,5.06
29.23634910583496,3.06,4.14,2.06,5.54
29.2514169216156,3.19,4.61,2.05,5.96
29.27997589111328,3.33,5.03,1.94,6.33
29.28154993057251,3.41,5.39,1.78,6.62
29.28270387649536,3.43,5.65,1.57,6.79
29.286027908325195,3.5,5.82,1.46,6.94
29.295872926712036,3.65,5.91,1.46,7.09
29.305952072143555,3.88,5.91,1.53,7.23
29.3162579536438,4.2,5.86,1.66,7.39
29.326555967330933,4.48,5.87,1.78,7.59
29.336681842803955,4.72,5.96,1.88,7.83
29.346808910369873,5.06,6.11,1.94,8.16
29.38240098953247,5.38,6.25,1.85,8.45
29.383997917175293,5.59,6.48,1.61,8.7
29.385174989700317,5.68,6.72,1.34,8.9
29.405985832214355,5.59,6.99,0.98,9.0
29.40782403945923,5.66,7.08,0.63,9.08
29.418254852294922,6.06,6.64,0.4,8.99
29.41998791694641,6.66,5.73,0.21,8.78
29.434278964996338,7.16,5.07,0.44,8.78
29.43718385696411,7.29,4.95,1.03,8.87
29.450947999954224,7.19,5.0,1.72,8.92
29.478088855743408,6.87,5.28,2.63,9.05
29.479650020599365,6.26,5.57,3.49,9.07
29.480823040008545,5.76,5.36,3.82,8.74
29.486835956573486,5.67,4.62,3.81,8.24
29.496874809265137,5.53,3.73,3.71,7.63
29.50703191757202,4.96,3.07,3.71,6.91
29.5175199508667,4.24,2.76,3.87,6.36
29.528055906295776,3.62,2.61,4.14,6.08
29.53770899772644,3.25,2.44,4.31,5.92
29.54844379425049,3.2,2.16,4.24,5.73
29.582737922668457,3.36,1.78,3.85,5.41
29.58430290222168,3.54,1.36,3.25,4.99
29.585477828979492,3.62,0.95,2.7,4.61
29.6046199798584,3.52,0.53,2.2,4.18
29.605509996414185,3.23,0.16,1.75,3.67
29.618886947631836,2.8,-0.19,1.34,3.1
29.620648860931396,2.35,-0.56,1.0,2.61
29.63406276702881,1.91,-0.89,0.73,2.23
29.638377904891968,1.43,-1.16,0.48,1.9
29.651073932647705,0.95,-1.4,0.3,1.71
29.684371948242188,0.53,-1.57,0.09,1.65
29.685996055603027,0.16,-1.71,-0.11,1.72
29.68715810775757,-0.1,-1.77,-0.1,1.77
29.705276012420654,-0.22,-1.84,-0.01,1.85
29.706468105316162,-0.26,-2.02,0.05,2.03
29.71794605255127,-0.3,-2.26,0.12,2.28
29.719733953475952,-0.37,-2.48,0.32,2.52
29.734088897705078,-0.4,-2.72,0.54,2.8
29.738872051239014,-0.37,-3.06,0.73,3.16
29.75113797187805,-0.25,-3.5,0.92,3.62
29.783749103546143,-0.21,-3.9,1.13,4.06
29.78535509109497,-0.41,-4.17,1.29,4.38
29.78652286529541,-0.71,-4.33,1.34,4.58
29.7885959148407,-1.0,-4.57,1.37,4.87
29.79891586303711,-1.21,-4.83,1.46,5.18
29.80885887145996,-1.37,-5.06,1.54,5.46
29.818991899490356,-1.51,-5.33,1.61,5.76
29.829626083374023,-1.55,-5.61,1.69,6.06
29.8397798538208,-1.59,-5.92,1.82,6.39
29.850250959396362,-1.65,-6.15,1.93,6.65
29.881731033325195,-1.61,-6.39,1.98,6.88
29.883131980895996,-1.5,-6.71,1.86,7.12
29.884257793426514,-1.36,-7.1,1.65,7.41
29.905277967453003,-1.31,-7.43,1.46,7.68
29.9064359664917,-1.35,-7.69,1.13,7.88
29.918354034423828,-1.63,-7.9,0.92,8.11
29.920137882232666,-2.06,-7.89,0.88,8.2
29.934088945388794,-2.5,-7.73,0.87,8.17
29.940128803253174,-2.76,-7.53,0.9,8.07
29.952017784118652,-2.89,-7.26,0.94,7.87
29.98540687561035,-2.87,-6.87,0.85,7.49
29.98700499534607,-2.5,-6.63,0.49,7.1
29.988167762756348,-1.67,-6.87,-0.2,7.07
30.00505304336548,-0.75,-7.52,-1.0,7.62
30.005903959274292,-0.08,-8.04,-1.6,8.19
30.01841402053833,0.29,-8.21,-1.9,8.43
30.02036190032959,0.42,-8.08,-1.78,8.28
30.03405499458313,0.34,-7.72,-1.3,7.83
30.041007041931152,0.3,-7.13,-0.76,7.17
30.053828954696655,0.29,-6.54,-0.33,6.55
30.082201957702637,0.29,-6.06,0.03,6.06
30.08376407623291,0.35,-5.57,0.3,5.58
30.084956884384155,0.75,-5.23,0.44,5.3
30.105243921279907,1.52,-5.11,0.47,5.35
30.1061110496521,2.27,-4.96,0.39,5.46
30.118531942367554,2.81,-4.67,0.34,5.46
30.120765924453735,3.33,-4.35,0.34,5.48
30.13375997543335,3.69,-4.04,0.28,5.47
30.141561031341553,3.73,-3.66,0.04,5.22
30.15157198905945,3.38,-3.22,-0.27,4.67
30.185374975204468,2.79,-2.74,-0.66,3.96
30.187006950378418,2.14,-2.31,-1.04,3.31
30.188163995742798,1.64,-1.99,-1.27,2.87
30.204965114593506,1.24,-1.84,-1.51,2.68
30.205821990966797,0.86,-1.73,-1.5,2.44
30.21860408782959,0.49,-1.57,-1.31,2.1
30.221352100372314,0.27,-1.42,-0.94,1.72
30.2342848777771,0.12,-1.26,-0.45,1.34
30.241962909698486,-0.01,-1.0,-0.03,1.0
30.252182960510254,-0.06,-0.64,0.37,0.74
30.286768913269043,-0.13,-0.28,0.68,0.74
30.288261890411377,-0.17,0.02,0.94,0.95
30.28941583633423,-0.06,0.22,1.02,1.04
30.29154896736145,0.0,0.34,0.97,1.02
30.30240797996521,-0.08,0.51,0.95,1.08
30.311877965927124,-0.21,0.7,1.06,1.28
30.322088956832886,-0.38,0.93,1.15,1.52
30.332077980041504,-0.47,1.11,1.26,1.74
30.342639923095703,-0.43,1.27,1.4,1.93
30.352832794189453,-0.32,1.46,1.59,2.18
30.3875150680542,-0.18,1.67,1.76,2.43
30.388948917388916,0.01,1.87,1.87,2.64
30.390071868896484,0.22,2.05,1.92,2.81
30.405276775360107,0.48,2.21,2.01,3.02
30.406135082244873,0.74,2.39,2.11,3.27
30.418477058410645,1.01,2.63,2.22,3.58
30.42257785797119,1.22,2.9,2.36,3.93
30.433949947357178,1.48,3.21,2.57,4.37
30.443222999572754,1.76,3.6,2.73,4.84
30.45343780517578,2.05,3.99,2.85,5.31
30.486802101135254,2.44,4.38,2.99,5.83
30.488337993621826,2.77,4.84,3.09,6.37
30.489542961120605,3.08,5.28,3.07,6.84
30.507174015045166,3.36,5.65,3.05,7.24
30.5084490776062,3.74,5.92,2.99,7.61
30.518181800842285,4.21,6.07,2.75,7.88
30.523303031921387,4.73,6.08,2.37,8.05
30.53402590751648,5.03,6.16,2.01,8.2
30.543715000152588,5.16,6.37,1.73,8.37
30.554239988327026,5.2,6.61,1.53,8.54
30.58769392967224,5.24,6.77,1.3,8.65
30.58927583694458,5.31,6.88,1.13,8.76
30.59041690826416,5.41,6.85,1.05,8.79
30.604898929595947,5.64,6.55,1.14,8.71
30.606042861938477,6.11,5.93,1.36,8.62
30.61833381652832,6.61,5.49,1.63,8.74
30.62385082244873,6.91,5.44,1.92,9.0
30.634397983551025,7.16,5.56,2.19,9.32
30.644198894500732,7.16,5.98,2.41,9.63
30.654508113861084,6.64,6.51,2.44,9.61
30.687551975250244,6.12,6.59,2.25,9.27
30.68913698196411,6.02,6.11,1.93,8.79
30.690287113189697,6.0,5.25,1.64,8.13
30.705549955368042,5.8,4.41,1.48,7.43
30.706727027893066,5.46,3.78,1.53,6.81
30.71949291229248,5.2,3.36,1.77,6.43
30.72439193725586,5.07,3.02,2.09,6.26
30.734743118286133,4.99,2.78,2.36,6.18
30.74489688873291,5.02,2.43,2.42,6.07
30.755125045776367,4.99,2.04,2.34,5.87
30.790103912353516,4.83,1.6,2.17,5.53
