time,ax,ay,az,atotal
0.005869865417480469,0.63,0.02,-0.03,0.63
0.009508132934570312,0.53,0.15,-0.12,0.56
0.019263029098510742,0.36,0.18,-0.01,0.4
0.029376983642578125,0.19,0.21,-0.03,0.28
0.03939700126647949,0.12,0.27,-0.05,0.29
0.049494028091430664,0.12,0.28,0.09,0.31
0.059519052505493164,0.12,0.23,0.25,0.36
0.06964898109436035,0.12,0.23,0.39,0.46
0.07956790924072266,0.1,0.19,0.57,0.6
0.08965897560119629,0.11,0.14,0.67,0.69
0.09978008270263672,0.15,0.12,0.68,0.7
0.10981988906860352,0.18,0.09,0.7,0.72
0.11984801292419434,0.25,0.09,0.65,0.7
0.1298999786376953,0.3,0.1,0.59,0.66
0.13999700546264648,0.32,0.1,0.52,0.61
0.15013790130615234,0.33,0.04,0.47,0.57
0.16012287139892578,0.27,0.01,0.41,0.49
0.17021417617797852,0.17,0.04,0.28,0.33
0.18019819259643555,0.11,0.05,0.24,0.26
0.1902940273284912,0.07,0.05,0.19,0.2
0.20050811767578125,0.04,0.07,0.1,0.12
0.2104811668395996,0.06,0.1,0.03,0.12
0.22046613693237305,0.07,0.07,-0.01,0.09
0.23040008544921875,0.07,0.11,-0.04,0.13
0.24067115783691406,0.09,0.15,-0.05,0.18
0.25070905685424805,0.13,0.15,0.01,0.19
0.26120615005493164,0.12,0.17,-0.05,0.21
0.27088403701782227,0.1,0.19,-0.13,0.25
0.28130102157592773,0.07,0.18,-0.15,0.24
0.29160404205322266,0.04,0.2,-0.17,0.26
0.30191802978515625,0.01,0.19,-0.17,0.25
0.3118550777435303,-0.03,0.11,-0.11,0.15
0.3224358558654785,-0.11,0.09,-0.08,0.16
0.33194494247436523,-0.21,0.09,-0.05,0.23
0.34226202964782715,-0.28,0.09,-0.04,0.29
0.35216498374938965,-0.31,0.06,-0.03,0.31
0.36223411560058594,-0.29,0.06,-0.01,0.29
0.37223005294799805,-0.22,0.05,0.01,0.22
0.3825058937072754,-0.21,0.02,0.0,0.21
0.39232802391052246,-0.22,0.01,0.01,0.22
0.40252208709716797,-0.24,-0.06,0.09,0.26
0.4125239849090576,-0.29,-0.1,0.13,0.33
0.42258691787719727,-0.33,-0.14,0.19,0.4
0.4326820373535156,-0.33,-0.14,0.28,0.45
0.44266796112060547,-0.34,-0.15,0.38,0.53
0.45279788970947266,-0.27,-0.11,0.46,0.54
0.46282505989074707,-0.17,-0.07,0.49,0.52
0.47295498847961426,-0.07,-0.05,0.46,0.46
0.483051061630249,0.01,-0.07,0.47,0.47
0.49292516708374023,0.09,-0.1,0.46,0.47
0.5030620098114014,0.11,-0.07,0.44,0.45
0.5131101608276367,0.05,-0.06,0.39,0.39
0.5231399536132812,0.0,-0.05,0.35,0.35
0.53336501121521,-0.02,-0.04,0.29,0.29
0.5432491302490234,-0.03,-0.01,0.26,0.26
0.5533108711242676,-0.04,0.01,0.24,0.24
0.5634629726409912,-0.01,0.05,0.2,0.2
0.5736050605773926,0.03,0.08,0.15,0.17
0.5837299823760986,0.07,0.13,0.13,0.19
0.5935909748077393,0.13,0.19,0.14,0.26
0.6036949157714844,0.18,0.22,0.16,0.32
0.6140720844268799,0.22,0.22,0.18,0.35
0.6237521171569824,0.25,0.21,0.24,0.4
0.6339221000671387,0.23,0.22,0.26,0.41
0.64388108253479,0.2,0.23,0.23,0.38
0.6540699005126953,0.19,0.22,0.18,0.34
0.6639871597290039,0.19,0.21,0.06,0.28
0.6743168830871582,0.18,0.21,-0.05,0.28
0.6841950416564941,0.19,0.2,-0.05,0.28
0.6941850185394287,0.21,0.13,-0.1,0.26
0.704179048538208,0.17,0.09,-0.11,0.22
0.7143101692199707,0.09,0.1,-0.09,0.16
0.7244000434875488,0.02,0.1,-0.12,0.15
0.7345118522644043,-0.01,0.13,-0.13,0.18
0.7444210052490234,-0.04,0.12,-0.16,0.2
0.7545051574707031,-0.02,0.03,-0.11,0.11
0.764585018157959,0.0,-0.01,-0.03,0.03
0.7755720615386963,0.01,-0.01,-0.04,0.04
0.7847719192504883,0.0,-0.02,-0.02,0.02
0.7947769165039062,-0.07,0.0,-0.02,0.07
0.8048758506774902,-0.11,0.02,-0.05,0.12
0.8149540424346924,-0.1,0.02,-0.09,0.13
0.8251380920410156,-0.08,-0.02,-0.09,0.12
0.8349840641021729,-0.11,0.01,-0.12,0.16
0.8450620174407959,-0.19,0.04,-0.12,0.22
0.8551790714263916,-0.21,0.01,-0.02,0.21
0.8651618957519531,-0.2,-0.02,0.08,0.21
0.8752532005310059,-0.19,-0.04,0.14,0.23
0.885444164276123,-0.19,-0.08,0.19,0.28
0.8953900337219238,-0.2,-0.14,0.28,0.37
0.9057779312133789,-0.25,-0.18,0.33,0.45
0.9154839515686035,-0.3,-0.2,0.35,0.5
0.9255170822143555,-0.31,-0.18,0.41,0.54
0.9355790615081787,-0.27,-0.19,0.47,0.57
0.9456892013549805,-0.23,-0.22,0.52,0.6
0.9556779861450195,-0.24,-0.21,0.52,0.61
0.9661149978637695,-0.25,-0.17,0.49,0.57
0.9757750034332275,-0.24,-0.17,0.44,0.52
0.9858889579772949,-0.27,-0.21,0.44,0.55
0.9960520267486572,-0.26,-0.15,0.54,0.61
1.0061440467834473,-0.12,-0.05,0.52,0.53
1.016343116760254,0.06,-0.12,0.5,0.51
1.0266389846801758,0.12,-0.18,0.43,0.48
1.0364089012145996,0.06,-0.09,0.37,0.38
1.0465540885925293,-0.03,0.04,0.26,0.26
1.0565671920776367,-0.06,0.06,0.15,0.17
1.0666210651397705,-0.01,0.12,0.13,0.17
1.0767278671264648,0.09,0.15,0.0,0.17
1.0870308876037598,0.12,0.14,-0.03,0.18
1.0966479778289795,0.05,0.12,-0.07,0.14
1.1065521240234375,0.09,0.21,-0.18,0.29
1.1169381141662598,0.11,0.23,-0.11,0.27
1.1267890930175781,0.03,0.24,-0.02,0.24
1.136789083480835,0.07,0.25,-0.17,0.31
1.1468570232391357,0.17,0.29,-0.56,0.65
1.1569890975952148,0.28,0.34,-1.07,1.15
1.167245864868164,0.39,0.24,-1.33,1.4
1.177051067352295,0.35,0.06,-1.35,1.39
1.1871509552001953,0.17,-0.13,-1.08,1.1
1.1972088813781738,-0.03,-0.18,-0.83,0.84
1.2075161933898926,-0.13,-0.13,-0.69,0.71
1.2175168991088867,-0.14,-0.16,-0.56,0.59
1.2274770736694336,-0.07,-0.17,-0.53,0.56
1.2375140190124512,0.16,-0.13,-0.34,0.39
1.2474589347839355,0.47,-0.1,-0.1,0.49
1.2575740814208984,0.75,-0.16,0.28,0.81
1.267758846282959,0.76,-0.28,0.64,1.03
1.2776861190795898,0.5,-0.33,0.88,1.06
1.290112018585205,0.02,-0.43,1.32,1.38
1.2975220680236816,-0.2,-0.32,2.37,2.39
1.3074951171875,0.07,0.0,2.07,2.07
1.31756591796875,0.62,-0.2,2.22,2.31
1.327868938446045,0.97,-0.27,2.16,2.38
1.3376469612121582,1.06,-0.14,1.72,2.02
1.3476881980895996,0.9,-0.13,1.22,1.52
1.358008861541748,0.37,-0.63,0.89,1.15
1.3680880069732666,0.22,-0.64,0.89,1.11
1.3773000240325928,0.38,-0.11,0.86,0.94
1.3877811431884766,0.45,-0.12,0.7,0.84
1.3974790573120117,0.41,-0.42,0.34,0.67
1.4075498580932617,0.35,-1.04,0.15,1.1
1.4174320697784424,0.25,-1.81,0.1,1.82
1.4277780055999756,0.51,-2.3,-0.05,2.35
1.4383389949798584,1.2,-2.49,-0.61,2.83
1.4486000537872314,1.99,-2.21,-1.48,3.32
1.4583930969238281,2.1,-1.32,0.14,2.48
1.4683098793029785,1.99,-0.6,-0.92,2.27
1.4784021377563477,1.43,-0.43,-1.39,2.04
1.4884190559387207,0.85,-0.29,-1.94,2.13
1.4989218711853027,0.18,-0.12,-2.31,2.32
1.50968599319458,-0.58,-0.14,-2.03,2.11
1.519132137298584,-1.14,-0.12,-1.74,2.08
1.5291829109191895,-1.25,-0.3,-1.31,1.83
1.5392341613769531,-0.96,-0.44,-1.1,1.52
1.549226999282837,-0.87,-0.32,-1.06,1.4
1.5596919059753418,-1.31,0.03,-0.65,1.46
1.5693459510803223,-1.93,0.64,0.02,2.03
1.5793471336364746,-2.19,1.13,0.5,2.51
1.5895881652832031,-1.9,1.21,0.7,2.35
1.5986390113830566,-1.31,1.14,1.05,2.02
1.6086790561676025,-0.58,1.0,1.39,1.8
1.6188669204711914,0.07,0.71,0.92,1.16
1.6288971900939941,0.51,0.55,0.13,0.76
1.6389851570129395,0.65,0.49,-0.6,1.01
1.6489670276641846,0.71,0.7,-1.03,1.43
1.6590890884399414,0.62,1.04,-1.17,1.68
1.6691040992736816,0.55,1.03,-1.1,1.6
1.6790509223937988,0.65,0.73,-0.72,1.21
1.6894831657409668,0.78,0.31,-0.34,0.9
1.6996610164642334,1.11,-0.04,-0.19,1.12
1.709963083267212,1.76,-0.17,-0.42,1.81
1.720546007156372,2.22,-0.11,-0.6,2.3
1.7304348945617676,1.65,0.11,-0.44,1.71
1.7406330108642578,0.32,0.25,0.03,0.4
1.751039981842041,-0.75,0.34,0.57,1.0
1.7605719566345215,-1.19,0.51,0.72,1.48
1.7707619667053223,-1.13,0.35,0.57,1.31
1.7808220386505127,-1.01,0.04,0.37,1.07
1.791849136352539,-0.7,-0.32,0.14,0.78
1.8010690212249756,-0.77,-0.4,0.0,0.86
1.8110020160675049,-1.09,-0.56,0.18,1.23
1.8210530281066895,-1.13,-0.73,-0.04,1.34
1.8310961723327637,-0.59,-0.98,-0.68,1.33
1.8411290645599365,0.28,-0.97,-1.58,1.87
1.8515501022338867,1.01,-1.04,-2.29,2.71
1.860605001449585,1.7,-0.9,-3.22,3.75
1.8709988594055176,2.47,-0.56,-4.18,4.88
1.881350040435791,2.53,-0.19,-4.48,5.14
1.8916411399841309,2.06,0.02,-4.12,4.6
1.9015779495239258,1.32,0.24,-3.6,3.84
1.9115099906921387,0.88,0.02,-2.92,3.04
1.9216060638427734,0.7,-0.47,-2.46,2.6
1.9316270351409912,0.47,-0.57,-2.04,2.16
1.9420199394226074,0.43,-0.37,-1.63,1.72
1.9520111083984375,0.49,-0.17,-2.03,2.09
1.961963176727295,0.51,-0.37,-2.7,2.77
1.9721121788024902,0.26,-0.68,-3.61,3.68
1.9822630882263184,-0.99,-0.92,-4.2,4.41
1.9918551445007324,-2.04,-1.19,-3.84,4.5
2.002077102661133,-2.18,-1.48,-2.47,3.61
2.0120370388031006,-1.78,-1.49,-2.58,3.47
2.0222320556640625,-1.18,-2.18,-4.35,5.0
2.0322110652923584,-1.6,-3.44,-4.45,5.84
2.042356014251709,-0.99,-4.41,-4.43,6.32
2.0523340702056885,-0.55,-4.42,-3.78,5.84
2.0624451637268066,-0.41,-3.94,-3.42,5.23
2.072664976119995,-0.33,-3.8,-3.41,5.11
2.0826380252838135,-0.62,-3.69,-2.47,4.48
2.0926730632781982,-0.99,-2.69,-1.73,3.34
2.1026430130004883,-0.52,-1.12,-1.88,2.24
2.1127829551696777,1.28,-0.79,-0.52,1.59
2.1228089332580566,3.96,-1.61,2.49,4.94
2.132850170135498,5.97,-2.17,5.42,8.35
2.1428730487823486,6.77,-1.77,6.61,9.62
2.153088092803955,6.25,-0.63,6.79,9.25
2.1630520820617676,4.82,0.09,6.32,7.94
2.1730799674987793,3.39,0.73,6.1,7.01
2.1830999851226807,2.73,1.2,6.61,7.25
2.1932380199432373,2.95,1.19,7.32,7.98
2.2051000595092773,3.57,1.08,7.46,8.34
2.2128138542175293,3.94,1.29,6.59,7.78
2.2229580879211426,4.02,1.58,4.98,6.59
2.2330079078674316,4.17,1.64,3.37,5.6
2.2430081367492676,3.93,1.62,2.23,4.8
2.2530879974365234,3.17,1.96,1.36,3.96
2.2631289958953857,2.44,2.17,0.89,3.38
2.273305892944336,2.0,2.12,0.66,2.98
2.283285140991211,1.58,2.08,0.33,2.63
2.293330192565918,1.23,2.01,0.18,2.36
2.303328037261963,0.99,1.82,0.32,2.09
2.3132760524749756,0.84,1.79,0.42,2.02
2.323479175567627,0.93,1.64,0.35,1.91
2.333487033843994,1.03,1.36,0.35,1.74
2.3435049057006836,0.78,1.31,0.35,1.56
2.3536970615386963,0.44,1.24,0.19,1.32
2.3637590408325195,0.12,1.13,0.14,1.14
2.3735928535461426,-0.08,1.08,0.35,1.13
2.3836488723754883,0.02,1.04,0.61,1.2
2.3937180042266846,0.21,0.9,0.91,1.29
2.4039831161499023,0.34,0.79,1.24,1.5
2.4145870208740234,0.33,0.8,1.39,1.63
2.424583911895752,0.13,0.86,1.34,1.59
2.4348349571228027,-0.05,0.86,1.1,1.39
2.4446868896484375,-0.08,0.85,0.9,1.24
2.4550540447235107,0.05,0.81,0.72,1.08
2.464766025543213,0.15,0.77,0.62,0.99
2.474864959716797,0.26,0.81,0.7,1.1
2.4850821495056152,0.4,0.85,0.8,1.23
2.4949610233306885,0.49,0.81,0.81,1.24
2.5050811767578125,0.51,0.78,0.84,1.25
2.515456199645996,0.46,0.77,0.77,1.18
2.5252108573913574,0.37,0.72,0.65,1.03
2.535396099090576,0.26,0.74,0.6,0.98
2.545274019241333,0.2,0.77,0.57,0.97
2.5553510189056396,0.33,0.75,0.64,1.03
2.5657010078430176,0.46,0.72,0.77,1.15
2.575838088989258,0.34,0.68,0.6,0.96
2.585564136505127,0.19,0.7,0.22,0.75
2.5978331565856934,0.08,0.64,-0.02,0.64
2.6052820682525635,-0.04,0.57,-0.02,0.57
2.615407943725586,-0.07,0.56,0.13,0.57
2.626239061355591,-0.05,0.51,0.33,0.6
2.635354995727539,0.0,0.5,0.52,0.72
2.646038055419922,0.07,0.46,0.65,0.79
2.6556620597839355,0.15,0.43,0.73,0.86
2.6656270027160645,0.21,0.39,0.7,0.82
2.67673397064209,0.29,0.35,0.76,0.88
2.6856210231781006,0.48,0.24,0.61,0.81
2.6960320472717285,0.38,0.1,0.14,0.41
2.705878973007202,0.0,0.14,-0.39,0.41
2.7159390449523926,-0.41,0.29,-0.9,1.03
2.725969076156616,-0.69,0.33,-0.94,1.21
2.7359960079193115,-0.63,0.23,-0.61,0.9
2.7460899353027344,-0.27,0.18,-0.19,0.37
2.7564079761505127,0.08,-0.03,0.21,0.22
2.7662200927734375,0.09,-0.16,0.51,0.54
2.776276111602783,-0.09,-0.14,0.5,0.52
2.78635311126709,-0.28,-0.14,0.31,0.44
2.7964439392089844,-0.4,-0.21,0.27,0.52
2.8078999519348145,-0.36,-0.18,0.32,0.51
2.8174290657043457,-0.22,-0.17,0.26,0.38
2.8273820877075195,-0.09,-0.17,0.14,0.23
2.8372230529785156,-0.13,-0.16,0.07,0.21
2.847414016723633,-0.2,-0.13,0.11,0.26
2.8573989868164062,-0.26,-0.19,0.14,0.35
2.867279052734375,-0.3,-0.23,0.13,0.39
2.8773159980773926,-0.37,-0.23,0.04,0.43
2.8873491287231445,-0.37,-0.18,-0.01,0.41
2.8972949981689453,-0.15,-0.14,-0.01,0.2
2.9074878692626953,0.0,-0.19,-0.01,0.19
2.9175891876220703,-0.01,-0.16,-0.08,0.17
2.9275989532470703,-0.03,-0.11,-0.19,0.22
2.9377260208129883,0.04,-0.11,-0.17,0.2
2.94781494140625,0.01,-0.1,-0.16,0.18
2.957634925842285,-0.09,-0.09,-0.19,0.22
2.967978000640869,-0.16,-0.07,-0.14,0.22
2.977886199951172,-0.16,-0.06,-0.12,0.2
2.9879279136657715,-0.1,-0.11,-0.08,0.16
2.9979820251464844,0.04,-0.13,-0.02,0.13
3.0080161094665527,0.06,-0.15,-0.01,0.16
3.0182690620422363,-0.02,-0.15,-0.01,0.15
3.02816104888916,0.02,-0.13,0.0,0.13
3.038301944732666,0.13,-0.14,0.01,0.19
3.048652172088623,0.17,-0.1,0.04,0.2
3.0583510398864746,0.23,0.01,0.0,0.23
3.0685360431671143,0.29,0.1,-0.23,0.38
3.0784969329833984,0.22,0.14,-0.34,0.42
3.088463068008423,0.21,0.18,-0.34,0.43
3.0986509323120117,0.13,0.22,-0.17,0.3
3.108579158782959,0.13,0.34,0.14,0.39
3.118828058242798,0.25,0.4,0.47,0.66
3.128826141357422,0.22,0.46,0.81,0.95
3.138843059539795,0.27,0.5,0.95,1.1
3.1489100456237793,0.39,0.42,0.89,1.05
3.1589419841766357,0.42,0.39,0.6,0.82
3.1690540313720703,0.36,0.4,0.37,0.65
3.179081916809082,0.28,0.46,0.24,0.58
3.18912410736084,0.33,0.51,0.4,0.72
3.1991779804229736,0.39,0.59,0.55,0.89
3.209238052368164,0.36,0.66,0.74,1.05
3.219377040863037,0.33,0.68,0.93,1.19
3.2291200160980225,0.29,0.67,0.95,1.19
3.2388710975646973,0.26,0.58,0.9,1.1
3.24949312210083,0.26,0.42,0.78,0.92
3.259511947631836,0.24,0.35,0.63,0.75
3.269619941711426,0.21,0.3,0.64,0.73
3.279715061187744,0.2,0.21,0.71,0.76
3.289797067642212,0.13,0.15,0.69,0.71
3.2999110221862793,0.03,0.2,0.64,0.67
3.3099708557128906,-0.07,0.19,0.53,0.56
3.3199539184570312,-0.21,0.11,0.42,0.48
3.3299999237060547,-0.33,0.06,0.36,0.49
3.340005874633789,-0.42,-0.02,0.3,0.51
3.350226879119873,-0.52,-0.15,0.22,0.58
3.360257148742676,-0.56,-0.26,0.05,0.61
3.370370864868164,-0.56,-0.32,-0.1,0.65
3.3803091049194336,-0.56,-0.36,-0.15,0.68
3.3904380798339844,-0.61,-0.34,-0.36,0.78
3.4004268646240234,-0.7,-0.25,-0.61,0.96
3.412168025970459,-0.8,-0.2,-0.62,1.03
3.4206061363220215,-0.84,-0.2,-0.3,0.91
3.4306468963623047,-0.83,-0.19,0.01,0.85
3.4405970573425293,-0.78,-0.26,0.28,0.86
3.4507999420166016,-0.57,-0.36,0.48,0.82
3.4611401557922363,-0.29,-0.47,0.44,0.7
3.470940113067627,-0.06,-0.68,0.31,0.74
3.4810190200805664,-0.04,-0.83,0.49,0.96
3.490973949432373,-0.25,-0.63,0.63,0.92
3.5011820793151855,-0.39,-0.36,0.41,0.67
3.511092185974121,-0.5,-0.2,0.06,0.54
3.5215978622436523,-0.54,-0.32,-0.04,0.62
3.5312118530273438,-0.49,-0.5,-0.01,0.7
3.5412979125976562,-0.4,-0.58,0.01,0.7
3.5514590740203857,-0.33,-0.5,0.01,0.59
3.561431884765625,-0.27,-0.42,0.01,0.49
3.5713448524475098,-0.13,-0.37,-0.01,0.39
3.581800937652588,0.04,-0.32,-0.01,0.32
3.591538906097412,0.12,-0.37,0.05,0.39
3.6017589569091797,0.13,-0.41,0.0,0.43
3.6115808486938477,0.14,-0.32,-0.2,0.4
3.621671199798584,0.13,-0.25,-0.26,0.38
3.6316800117492676,0.13,-0.25,-0.18,0.33
3.641788959503174,0.24,-0.24,-0.11,0.35
3.652003049850464,0.32,-0.17,-0.02,0.36
3.6620030403137207,0.39,-0.09,0.04,0.4
3.6719141006469727,0.42,0.01,0.05,0.42
3.682042121887207,0.41,0.15,0.1,0.44
3.692016124725342,0.49,0.26,0.12,0.56
3.7023019790649414,0.55,0.24,0.07,0.6
3.7121028900146484,0.57,0.16,0.04,0.59
3.722309112548828,0.46,0.09,-0.04,0.47
3.732269048690796,0.22,0.06,-0.12,0.25
3.7424678802490234,0.03,0.02,-0.09,0.09
3.752542018890381,-0.14,0.07,0.02,0.15
3.762568950653076,-0.16,0.06,0.11,0.2
3.772657871246338,-0.07,-0.02,0.16,0.17
3.782683849334717,0.03,-0.07,0.2,0.21
3.7927069664001465,-0.05,-0.18,0.28,0.33
3.802788019180298,-0.16,-0.26,0.29,0.42
3.81290602684021,-0.22,-0.23,0.25,0.4
3.823355197906494,-0.26,-0.09,0.19,0.33
3.833144187927246,-0.28,0.02,0.11,0.3
3.843106985092163,-0.31,0.05,0.06,0.31
3.8530349731445312,-0.25,0.02,-0.05,0.25
3.863138198852539,-0.17,-0.04,-0.09,0.19
3.8732709884643555,-0.14,-0.07,-0.04,0.16
3.883389949798584,-0.18,-0.09,0.01,0.2
3.8933701515197754,-0.27,-0.1,0.09,0.3
3.903357982635498,-0.28,-0.08,0.24,0.37
3.91347599029541,-0.18,-0.05,0.35,0.39
3.923635959625244,0.0,-0.07,0.35,0.35
3.9340200424194336,0.12,-0.13,0.3,0.34
3.943639039993286,0.11,-0.15,0.23,0.29
3.9537429809570312,0.04,-0.13,0.2,0.24
3.963778018951416,0.05,-0.13,0.2,0.24
3.9739990234375,0.03,-0.13,0.27,0.3
3.9838690757751465,-0.16,-0.07,0.28,0.33
3.9944448471069336,-0.35,0.04,-0.2,0.4
4.003643989562988,-0.47,0.21,-1.45,1.53
4.013715982437134,-0.61,0.24,-0.5,0.82
4.023787021636963,-0.34,0.34,0.13,0.49
4.035365104675293,0.02,0.2,0.09,0.22
4.043827056884766,0.18,0.03,0.33,0.37
4.05391788482666,0.26,0.1,0.71,0.76
4.064090967178345,0.27,0.14,0.77,0.82
4.07397198677063,0.27,0.04,0.71,0.76
4.083992004394531,0.1,-0.04,0.42,0.43
4.094135999679565,-0.11,-0.03,0.13,0.17
4.1041810512542725,-0.22,0.06,-0.2,0.3
4.114291191101074,-0.23,0.14,-0.57,0.63
4.161578178405762,-0.21,0.18,-0.79,0.83
4.164635181427002,-0.15,0.21,-0.66,0.7
4.166359901428223,-0.06,0.22,-0.42,0.47
4.16869592666626,0.01,0.21,-0.25,0.32
4.170970916748047,0.12,0.09,-0.14,0.2
4.174054145812988,0.11,-0.03,-0.04,0.12
4.188745021820068,0.01,-0.05,0.12,0.13
4.194241046905518,-0.14,-0.06,0.17,0.22
4.2049641609191895,-0.23,-0.02,0.12,0.26
4.214418888092041,-0.25,0.03,0.0,0.25
4.248849868774414,-0.2,0.05,-0.03,0.2
4.250298023223877,-0.14,0.05,-0.02,0.15
4.251178026199341,-0.1,0.03,0.03,0.1
4.25666618347168,-0.02,0.04,0.1,0.1
4.264589071273804,0.03,0.02,0.12,0.12
4.274653911590576,0.02,0.02,0.12,0.12
4.284965991973877,0.03,0.03,0.12,0.12
4.295098066329956,0.03,0.05,0.08,0.09
4.30504298210144,0.03,0.05,0.06,0.08
4.315415859222412,0.03,0.02,0.02,0.04
4.355274200439453,0.0,0.02,-0.02,0.02
4.356925964355469,-0.04,0.02,-0.04,0.06
4.357773065567017,-0.08,0.01,-0.04,0.09
4.3739659786224365,-0.14,0.02,-0.04,0.14
4.375423908233643,-0.24,0.01,-0.05,0.24
4.388758182525635,-0.3,0.01,0.0,0.3
4.391000032424927,-0.25,-0.01,0.09,0.26
4.405009984970093,-0.18,-0.09,0.15,0.25
4.407497882843018,-0.1,-0.14,0.1,0.19
4.422206878662109,-0.06,-0.19,-0.04,0.2
4.448923110961914,-0.11,-0.23,-0.19,0.31
4.450646877288818,-0.2,-0.25,-0.3,0.43
4.451606035232544,-0.31,-0.27,-0.37,0.55
4.456632137298584,-0.36,-0.31,-0.44,0.64
4.465526103973389,-0.37,-0.38,-0.52,0.74
4.475990056991577,-0.41,-0.49,-0.56,0.84
4.486003875732422,-0.45,-0.57,-0.55,0.91
4.496363162994385,-0.58,-0.65,-0.51,1.0
4.5063371658325195,-0.78,-0.74,-0.49,1.18
4.5165040493011475,-0.98,-0.72,-0.45,1.29
4.557015895843506,-1.03,-0.65,-0.35,1.26
4.5587968826293945,-1.0,-0.63,-0.33,1.22
4.56017804145813,-0.87,-0.71,-0.39,1.18
4.573544025421143,-0.73,-0.83,-0.45,1.19
4.575067043304443,-0.67,-0.92,-0.6,1.28
4.588158130645752,-0.71,-0.91,-0.73,1.36
4.590539932250977,-0.81,-0.83,-0.77,1.39
4.6050028800964355,-0.76,-0.69,-0.67,1.22
4.607522964477539,-0.52,-0.53,-0.52,0.9
4.621737003326416,-0.22,-0.44,-0.45,0.66
4.6510090827941895,0.16,-0.33,-0.47,0.59
4.652436971664429,0.48,-0.18,-0.61,0.79
4.653393030166626,0.71,-0.02,-0.73,1.01
4.657040119171143,0.7,0.2,-0.78,1.06
4.6667640209198,0.51,0.45,-0.77,1.02
4.677043914794922,0.21,0.69,-0.78,1.06
4.687394142150879,-0.1,1.02,-0.76,1.27
4.697314023971558,-0.25,1.49,-0.66,1.64
4.707551956176758,-0.16,2.08,-0.49,2.14
4.717473983764648,0.15,2.73,-0.14,2.73
4.755823135375977,0.43,3.28,0.17,3.31
4.75791597366333,0.54,3.71,0.49,3.78
4.759354114532471,0.51,4.1,0.8,4.2
4.773769855499268,0.42,4.48,1.14,4.64
4.7753260135650635,0.44,4.74,1.53,5.0
4.78855299949646,0.5,4.81,1.91,5.19
4.790651082992554,0.49,4.77,2.16,5.25
4.804895877838135,0.51,4.71,2.4,5.31
4.808003902435303,0.64,4.71,2.73,5.48
4.821866035461426,0.84,4.78,2.95,5.67
4.849625110626221,1.13,4.89,3.04,5.86
4.851155996322632,1.55,5.02,3.09,6.09
4.852118015289307,1.84,5.15,3.05,6.26
4.858072996139526,2.05,5.29,2.99,6.41
4.868052959442139,2.3,5.47,3.01,6.65
4.878499984741211,2.67,5.63,3.0,6.91
4.88847017288208,3.15,5.83,2.89,7.22
4.898452997207642,3.63,6.14,2.95,7.71
4.908750057220459,3.77,6.3,3.0,7.93
4.918943881988525,3.4,6.24,2.73,7.61
4.95441198348999,2.73,6.0,2.32,6.98
4.955934047698975,2.03,5.7,2.03,6.38
4.956850051879883,1.41,5.43,1.91,5.92
4.974246978759766,1.0,5.14,1.83,5.54
4.975800037384033,0.88,4.79,1.71,5.16
4.988471984863281,1.06,4.41,1.63,4.81
4.990122079849243,1.48,3.99,1.6,4.54
5.005711078643799,2.25,3.51,1.6,4.46
5.009425163269043,2.87,2.94,1.5,4.37
5.021991968154907,3.07,2.29,1.28,4.03
5.0588719844818115,3.01,1.69,1.04,3.6
5.060394048690796,2.91,1.17,0.88,3.25
5.0613110065460205,2.74,0.6,0.73,2.89
5.073545932769775,2.51,0.04,0.6,2.58
5.07512092590332,2.25,-0.51,0.46,2.35
5.088603973388672,1.95,-0.92,0.32,2.17
5.091152191162109,1.62,-1.17,0.19,2.0
5.105144023895264,1.27,-1.4,0.13,1.89
5.1100029945373535,0.92,-1.62,0.05,1.86
5.122081995010376,0.64,-1.73,-0.08,1.84
5.1552839279174805,0.99,-1.82,-0.24,2.08
5.1567840576171875,0.66,-2.74,-0.13,2.82
5.157721042633057,-0.13,-3.73,0.09,3.73
5.174589157104492,0.2,-3.59,-0.02,3.59
5.176110029220581,0.2,-3.61,-0.17,3.61
5.189271926879883,-0.45,-4.17,-0.31,4.2
5.191766977310181,-0.95,-4.68,-0.48,4.79
5.205188989639282,-1.15,-4.94,-0.71,5.12
5.210495948791504,-1.29,-5.11,-0.87,5.34
5.222311973571777,-1.54,-5.37,-1.0,5.67
5.255589962005615,-1.83,-5.64,-1.21,6.05
5.2573840618133545,-2.07,-5.89,-1.45,6.4
5.25833797454834,-2.32,-6.15,-1.67,6.78
5.274590969085693,-2.49,-6.4,-1.85,7.11
5.276134014129639,-2.66,-6.64,-1.99,7.42
5.289280891418457,-2.83,-6.93,-2.12,7.77
5.291640996932983,-2.94,-7.28,-2.27,8.17
5.305263996124268,-3.0,-7.64,-2.47,8.57
5.31098198890686,-3.05,-8.01,-2.66,8.97
5.322256088256836,-3.15,-8.29,-2.73,9.27
5.354208946228027,-3.26,-8.47,-2.7,9.46
5.355722904205322,-3.33,-8.55,-2.59,9.53
5.356685161590576,-3.29,-8.55,-2.34,9.45
5.374660015106201,-3.13,-8.55,-2.17,9.35
5.376060962677002,-2.56,-8.73,-2.13,9.34
5.3894500732421875,-1.56,-9.27,-1.99,9.6
5.391872882843018,-0.51,-9.77,-1.85,9.95
5.4052629470825195,0.09,-9.9,-1.79,10.06
5.41207218170166,0.27,-9.57,-1.82,9.74
5.422703981399536,0.38,-9.08,-1.74,9.25
5.455850124359131,0.49,-8.66,-1.57,8.81
5.4573822021484375,0.86,-8.37,-1.35,8.52
5.4583539962768555,1.32,-8.35,-1.36,8.56
5.4762139320373535,1.7,-8.48,-1.5,8.77
5.478355884552002,1.97,-8.62,-1.67,8.99
5.489660978317261,2.22,-8.78,-1.7,9.21
5.492142200469971,2.59,-8.99,-1.39,9.45
5.505323886871338,3.11,-9.09,-0.54,9.62
5.512350082397461,4.26,-8.87,0.4,9.84
5.522499084472656,5.93,-8.59,1.23,10.51
5.558840990066528,7.95,-8.17,2.04,11.58
5.560678005218506,10.22,-7.63,2.67,13.03
5.5616278648376465,12.17,-7.04,3.08,14.39
5.574426174163818,13.43,-6.2,3.48,15.19
5.575467109680176,14.08,-5.15,4.03,15.52
5.589600086212158,13.83,-3.73,4.65,15.06
5.593118190765381,12.8,-2.11,5.16,13.96
5.605756998062134,11.49,-0.6,5.67,12.82
5.612897872924805,10.2,0.7,5.92,11.81
5.623020172119141,9.07,1.77,5.67,10.84
5.656843185424805,8.34,2.62,5.22,10.18
5.658402919769287,7.84,3.3,4.74,9.73
5.659353971481323,7.2,3.85,4.23,9.19
5.675049066543579,6.66,4.33,3.71,8.76
5.676570892333984,6.34,4.82,3.14,8.56
5.690351963043213,5.99,5.27,2.65,8.4
5.693398952484131,5.43,5.62,2.27,8.13
5.705933094024658,4.72,5.92,2.0,7.83
5.713592052459717,3.97,6.13,1.81,7.52
5.723671913146973,3.24,6.27,1.6,7.23
5.76028299331665,2.59,6.28,1.43,6.94
5.761818885803223,2.07,6.2,1.64,6.73
5.762760162353516,1.69,6.14,2.03,6.68
5.775115966796875,1.49,6.21,2.42,6.82
5.776591062545776,1.43,6.39,2.85,7.14
5.788717031478882,1.49,6.71,3.38,7.65
5.793987989425659,1.79,7.09,3.93,8.3
5.806023120880127,2.25,7.49,4.08,8.82
5.814496994018555,2.67,7.9,3.91,9.21
5.824294090270996,3.08,8.24,3.9,9.62
5.860629081726074,3.47,8.53,4.14,10.09
5.862121105194092,3.74,8.83,4.37,10.53
5.863072872161865,3.98,9.09,4.38,10.84
5.873968124389648,4.12,9.27,4.19,10.97
5.875040054321289,4.3,9.35,3.93,11.01
5.889071941375732,4.46,9.32,3.69,10.97
5.894443035125732,4.66,9.17,3.37,10.82
5.905633926391602,4.94,8.93,2.99,10.63
5.914748191833496,5.31,8.64,2.71,10.49
5.92484712600708,5.73,8.27,2.53,10.37
5.960265159606934,6.2,7.88,2.4,10.3
5.961771011352539,6.69,7.46,2.37,10.29
5.962728023529053,7.02,7.06,2.38,10.23
5.974786996841431,7.32,6.72,2.47,10.23
5.976080894470215,7.36,6.38,2.61,10.08
5.989094018936157,7.21,6.1,2.71,9.82
5.995193958282471,7.04,5.86,2.79,9.57
6.005659103393555,6.97,5.54,2.82,9.33
6.015316009521484,6.89,5.1,2.73,8.99
6.025420188903809,6.93,4.54,2.64,8.69
6.061613082885742,7.12,3.86,2.61,8.5
6.063180923461914,7.55,3.09,2.65,8.57
6.06414008140564,8.2,2.28,2.69,8.92
6.074717998504639,8.98,1.56,2.7,9.5
6.076297998428345,9.62,0.95,2.63,10.01
6.088885068893433,9.9,0.55,2.4,10.2
6.095858097076416,9.74,0.34,2.1,9.96
6.105763912200928,9.37,0.23,1.96,9.57
6.115962028503418,8.91,0.13,1.93,9.11
6.126062870025635,8.43,-0.23,1.86,8.63
6.165916919708252,8.07,-0.94,1.65,8.29
6.167608976364136,7.77,-1.82,1.3,8.08
6.168520927429199,7.48,-2.7,1.13,8.03
6.173886060714722,7.53,-3.97,1.13,8.58
6.175897121429443,7.7,-5.41,1.22,9.48
6.189100027084351,7.42,-6.89,1.65,10.25
6.1962220668792725,6.74,-8.53,1.46,10.96
6.206427097320557,5.58,-9.44,1.37,11.05
6.21658992767334,3.49,-7.98,1.52,8.84
6.226953029632568,1.83,-6.6,0.48,6.86
6.258678913116455,1.06,-5.87,-0.27,5.97
6.260560989379883,0.92,-5.39,-0.43,5.48
6.26154088973999,1.13,-5.08,-0.79,5.26
6.2747650146484375,0.85,-4.5,-1.63,4.86
6.276607036590576,0.84,-4.59,-1.37,4.86
6.288914203643799,0.96,-4.56,-0.07,4.66
6.297186851501465,0.97,-4.55,0.78,4.71
6.3073601722717285,0.81,-4.72,0.8,4.85
6.317386150360107,0.67,-5.0,0.77,5.1
6.32745099067688,0.59,-5.43,0.99,5.55
6.366250991821289,0.43,-5.88,1.29,6.03
6.367794036865234,0.22,-6.25,1.44,6.41
6.368753910064697,0.02,-6.58,1.32,6.71
6.374515056610107,-0.13,-6.91,1.19,7.01
6.377230167388916,-0.23,-7.17,1.13,7.26
6.389337062835693,-0.37,-7.49,1.12,7.58
6.397573947906494,-0.53,-7.77,1.09,7.86
6.4080119132995605,-0.8,-7.92,0.93,8.01
6.417728900909424,-1.18,-8.06,0.75,8.18
6.4280171394348145,-1.53,-8.03,0.66,8.2
6.465705871582031,-1.67,-8.15,0.55,8.33
6.467159032821655,-1.77,-8.32,0.42,8.51
6.468137979507446,-2.02,-8.4,0.28,8.64
6.474193096160889,-2.29,-8.41,0.22,8.71
6.4776930809021,-2.6,-8.39,0.18,8.78
6.489337921142578,-2.96,-8.4,0.11,8.9
6.498164176940918,-3.31,-8.42,0.07,9.04
6.508257865905762,-3.57,-8.47,0.02,9.19
6.518367052078247,-3.74,-8.57,-0.1,9.35
6.528440952301025,-3.84,-8.72,-0.26,9.53
6.565165996551514,-3.91,-8.83,-0.41,9.66
6.567233085632324,-3.96,-8.86,-0.46,9.71
6.568221092224121,-3.94,-8.79,-0.46,9.64
6.574089050292969,-3.89,-8.65,-0.47,9.49
6.578306198120117,-3.87,-8.55,-0.49,9.39
6.589137077331543,-3.81,-8.53,-0.47,9.35
6.598771095275879,-3.7,-8.55,-0.4,9.32
6.608824014663696,-3.52,-8.54,-0.36,9.24
6.618995189666748,-3.24,-8.52,-0.24,9.11
6.6290669441223145,-2.89,-8.48,-0.06,8.95
6.670983076095581,-2.21,-8.41,0.12,8.69
6.672983169555664,-1.06,-8.42,0.28,8.49
6.673917055130005,0.47,-8.56,0.33,8.57
6.692132949829102,2.05,-8.81,0.19,9.04
6.693688869476318,3.29,-9.13,-0.11,9.7
6.706902027130127,3.89,-9.17,-0.37,9.96
6.709191083908081,3.74,-8.76,-0.32,9.53
6.723124980926514,3.27,-8.14,0.28,8.77
6.725507020950317,2.93,-7.61,1.08,8.22
6.7396559715271,2.94,-7.25,1.59,7.98
6.770349025726318,3.73,-7.18,1.9,8.31
6.77147102355957,5.48,-7.62,2.06,9.6
6.793313980102539,7.49,-8.17,1.98,11.25
6.794968128204346,9.5,-8.58,1.85,12.93
6.807224988937378,11.05,-8.57,1.84,14.1
6.809773921966553,11.67,-7.82,1.95,14.18
6.822705984115601,11.28,-6.38,2.31,13.16
6.824841022491455,10.4,-4.68,2.84,11.75
6.839713096618652,9.54,-3.26,3.28,10.6
6.842323064804077,8.96,-2.31,3.31,9.82
6.8734588623046875,8.64,-1.66,2.99,9.29
6.874567031860352,8.38,-1.14,2.52,8.82
6.892009019851685,8.0,-0.54,2.1,8.28
6.893546104431152,7.51,0.41,1.66,7.7
6.906738042831421,7.07,1.48,1.04,7.29
6.9090189933776855,6.75,2.38,0.5,7.17
6.923083066940308,6.68,2.96,0.18,7.3
6.925468921661377,6.72,3.36,0.46,7.52
6.939703941345215,6.25,3.91,0.74,7.4
6.94224214553833,5.43,4.4,0.84,7.03
6.975975036621094,4.59,4.75,0.86,6.66
6.977081060409546,3.82,5.03,0.83,6.37
6.991466045379639,3.13,5.24,0.77,6.15
6.993103981018066,2.56,5.51,0.7,6.11
7.006545066833496,2.17,5.8,0.55,6.21
7.008929014205933,1.96,6.02,0.4,6.34
7.0226969718933105,1.89,6.18,0.34,6.47
7.024806022644043,1.92,6.33,0.45,6.63
7.039407014846802,1.83,6.57,0.67,6.85
7.041934967041016,1.67,6.95,0.95,7.21
7.070029973983765,1.6,7.32,1.3,7.6
7.071176052093506,1.63,7.63,1.65,7.97
7.093178987503052,1.76,7.92,1.92,8.33
7.094717979431152,1.96,8.12,2.14,8.62
7.106852054595947,2.21,8.33,2.4,8.94
7.109230041503906,2.48,8.6,2.6,9.32
7.122781991958618,2.84,8.85,2.69,9.67
7.124866962432861,3.41,9.01,2.68,9.99
7.139420986175537,4.17,9.07,2.67,10.33
7.141731023788452,5.03,9.0,2.58,10.62
7.178433895111084,5.86,8.88,2.42,10.91
7.179960012435913,6.54,8.76,2.2,11.15
7.180914878845215,7.19,8.66,1.92,11.41
7.191296100616455,7.92,8.51,1.63,11.73
7.192358016967773,8.67,8.37,1.33,12.12
7.206135034561157,9.36,8.18,0.99,12.47
7.207790851593018,9.79,7.88,0.63,12.58
7.222434043884277,9.86,7.58,0.38,12.44
7.224420070648193,9.64,7.33,0.37,12.11
7.2394859790802,9.3,7.08,0.58,11.7
7.259382009506226,8.85,6.67,0.89,11.11
7.260921955108643,8.27,6.13,1.2,10.36
7.262436866760254,7.63,5.54,1.51,9.54
7.274924039840698,6.86,4.96,1.75,8.64
7.28262186050415,6.0,4.46,1.95,7.72
7.293044090270996,5.24,3.85,2.3,6.89
7.3030290603637695,4.94,3.07,2.87,6.48
7.31315803527832,5.13,2.41,3.44,6.63
7.323141098022461,5.54,2.09,3.66,6.96
7.333425045013428,6.0,1.94,3.6,7.26
7.373151063919067,6.64,1.65,3.37,7.62
7.375293016433716,7.28,1.09,3.26,8.05
7.376816987991333,8.03,0.35,3.29,8.68
7.391602039337158,8.9,-0.44,3.28,9.49
7.393177032470703,9.45,-0.95,2.92,9.93
7.406996965408325,9.56,-1.12,2.43,9.92
7.409404039382935,9.46,-1.33,2.18,9.79
7.42289400100708,9.27,-1.74,2.17,9.67
7.425297021865845,9.04,-2.39,2.14,9.59
7.440071105957031,8.64,-3.09,2.12,9.41
7.4699180126190186,7.81,-3.61,2.33,8.91
7.471435070037842,6.86,-4.04,2.23,8.26
7.47241997718811,5.77,-4.18,2.04,7.41
7.47498893737793,4.76,-4.44,1.74,6.73
7.483574867248535,3.73,-4.57,1.43,6.06
7.493896961212158,2.58,-4.29,0.76,5.06
7.503934860229492,1.68,-4.32,0.01,4.63
7.514263153076172,1.35,-4.92,0.39,5.11
7.524477005004883,1.31,-5.51,1.46,5.84
7.534780979156494,1.13,-5.89,1.81,6.26
7.572354078292847,0.84,-6.27,1.62,6.53
7.574263095855713,0.65,-6.8,1.57,7.0
7.575218200683594,0.51,-7.28,1.79,7.51
7.592392921447754,0.41,-7.68,2.03,7.95
7.593995094299316,0.35,-8.0,2.12,8.28
7.607255935668945,0.34,-8.26,2.15,8.54
7.6095428466796875,0.41,-8.56,2.12,8.82
7.623497009277344,0.48,-8.93,1.93,9.14
7.625985145568848,0.33,-9.15,1.58,9.29
7.640550136566162,0.17,-9.54,1.23,9.62
7.668817043304443,-0.05,-9.87,1.07,9.92
7.670307159423828,-0.54,-10.01,0.97,10.07
7.671306133270264,-1.31,-9.94,0.8,10.05
7.675107002258301,-2.26,-9.84,0.62,10.11
7.6898109912872314,-3.37,-9.59,0.44,10.17
7.695216178894043,-4.45,-9.22,0.28,10.24
7.705779075622559,-5.11,-9.01,0.18,10.35
7.715417861938477,-5.22,-9.13,0.09,10.51
7.7256200313568115,-5.03,-9.4,-0.05,10.66
7.7356390953063965,-4.8,-9.7,-0.31,10.82
7.771965026855469,-4.54,-9.91,-0.52,10.91
7.773500919342041,-4.35,-9.99,-0.62,10.91
7.7743120193481445,-4.33,-9.99,-0.58,10.9
7.792494058609009,-4.43,-9.91,-0.45,10.86
7.794020175933838,-4.48,-9.78,-0.37,10.76
7.807326078414917,-4.36,-9.67,-0.31,10.61
7.810103893280029,-4.05,-9.58,-0.18,10.4
7.825423002243042,-3.52,-9.41,0.01,10.04
7.828117847442627,-2.87,-9.2,0.22,9.63
7.840775012969971,-2.01,-9.27,0.37,9.49
7.8641581535339355,-0.68,-9.78,0.44,9.81
7.865753173828125,0.82,-10.44,0.35,10.47
7.866766929626465,2.0,-10.88,0.17,11.06
7.876194000244141,2.7,-10.93,0.12,11.25
7.886364936828613,2.79,-10.55,0.23,10.91
7.896617889404297,2.6,-9.87,0.57,10.22
7.906753063201904,2.45,-9.21,1.02,9.58
7.916517019271851,2.67,-8.73,1.45,9.24
7.926836013793945,3.35,-8.41,1.7,9.21
7.937140941619873,4.33,-8.29,1.82,9.52
7.973531007766724,5.47,-8.21,1.87,10.04
7.97535514831543,6.63,-7.97,1.85,10.53
7.976372003555298,7.67,-7.49,1.71,10.85
7.99247407913208,8.47,-6.9,1.55,11.03
7.994001865386963,8.86,-6.25,1.56,10.95
8.007535934448242,8.61,-5.38,1.63,10.28
8.009659051895142,7.88,-4.32,1.77,9.15
8.023414134979248,7.09,-3.28,1.91,8.04
8.027551174163818,6.3,-2.46,1.93,7.03
8.040271043777466,5.5,-1.76,1.7,6.01
8.071748971939087,4.72,-1.01,1.34,5.0
8.073297023773193,4.13,-0.27,1.1,4.28
8.074265003204346,3.89,0.44,1.02,4.04
8.0924711227417,3.76,1.01,0.96,4.0
8.0940580368042,3.61,1.45,0.79,3.96
8.106761932373047,3.58,1.79,0.53,4.03
8.109365940093994,3.67,2.14,0.38,4.26
8.123394012451172,3.67,2.16,0.2,4.26
8.128129959106445,3.76,2.1,0.68,4.36
8.141134977340698,3.63,2.59,1.31,4.64
8.169826030731201,3.25,3.1,1.98,4.9
8.171385049819946,3.05,3.42,2.23,5.09
8.172365188598633,2.92,3.74,2.01,5.15
8.175588130950928,2.84,4.08,1.76,5.27
8.185285091400146,2.82,4.35,1.64,5.43
8.195461988449097,2.81,4.66,1.63,5.68
8.205960988998413,2.78,5.06,1.74,6.02
8.215749025344849,2.84,5.57,1.9,6.53
8.2258939743042,3.02,6.0,1.95,6.99
8.235925197601318,3.36,6.36,1.96,7.45
8.274405002593994,3.75,6.68,1.98,7.91
8.275957107543945,4.03,7.03,1.98,8.34
8.276808977127075,4.4,7.45,1.94,8.86
8.292728900909424,4.89,7.81,1.87,9.4
8.29427194595337,5.27,8.1,1.74,9.81
8.3076171875,5.59,8.37,1.52,10.17
8.309952974319458,5.88,8.56,1.27,10.46
8.323548078536987,6.06,8.68,0.96,10.62
8.326503038406372,6.14,8.71,0.67,10.67
8.340795040130615,6.04,8.71,0.43,10.6
8.371206998825073,5.97,8.65,0.34,10.51
8.37271499633789,5.98,8.56,0.38,10.44
8.373680114746094,6.05,8.44,0.43,10.39
8.393136024475098,6.22,8.34,0.46,10.41
8.39473819732666,6.58,8.19,0.47,10.51
8.408100128173828,7.01,7.98,0.44,10.63
8.410943031311035,7.35,7.7,0.44,10.65
8.42253303527832,7.66,7.27,0.49,10.57
8.426988124847412,7.93,6.74,0.61,10.42
8.44041919708252,8.26,6.09,0.86,10.29
8.469307899475098,8.64,5.42,1.21,10.27
8.470921993255615,9.02,4.81,1.56,10.34
8.471919059753418,9.33,4.41,1.8,10.47
8.476989984512329,9.38,4.36,1.83,10.5
8.486987113952637,9.07,4.42,1.64,10.22
8.497192859649658,8.52,4.26,1.37,9.62
8.507346153259277,7.87,3.72,1.24,8.79
8.517497062683105,7.27,3.01,1.32,7.97
8.527714967727661,6.74,1.96,1.67,7.21
8.537935018539429,6.16,0.95,2.24,6.62
8.572923183441162,5.67,0.16,2.76,6.3
8.574451923370361,5.39,-0.45,3.1,6.23
8.57542085647583,5.42,-1.02,3.2,6.37
8.59291410446167,5.53,-1.67,3.16,6.58
8.594452857971191,5.53,-2.41,3.02,6.74
8.607380867004395,5.52,-3.16,2.8,6.94
8.60976791381836,5.35,-3.84,2.82,7.16
8.62410593032837,4.91,-4.15,2.76,6.99
8.628597021102905,4.03,-3.98,2.25,6.09
8.640674114227295,3.22,-3.77,1.55,5.19
8.676027059555054,2.74,-3.79,1.32,4.85
8.677546977996826,2.35,-3.81,1.48,4.71
8.678538084030151,1.8,-3.41,0.98,3.97
8.692239046096802,1.36,-3.33,0.51,3.63
8.693256855010986,1.2,-3.57,0.97,3.88
8.707880973815918,0.99,-3.84,1.28,4.16
8.709504127502441,0.66,-4.2,1.14,4.4
8.72358512878418,0.41,-4.68,1.08,4.82
8.729288101196289,0.32,-5.15,1.17,5.29
8.740903854370117,0.19,-5.61,1.2,5.74
8.776585102081299,0.13,-6.08,1.21,6.2
8.77811598777771,0.09,-6.45,1.17,6.55
8.7791109085083,0.07,-6.82,1.15,6.91
8.792618036270142,-0.06,-7.17,1.18,7.26
8.793662071228027,-0.39,-7.43,1.18,7.53
8.807039022445679,-0.74,-7.52,1.12,7.63
8.809489965438843,-0.96,-7.59,1.08,7.72
8.823617935180664,-1.06,-7.67,1.13,7.82
8.829823970794678,-1.38,-7.71,1.16,7.91
8.84077501296997,-1.8,-7.68,1.11,7.96
8.873291969299316,-2.23,-7.62,1.06,8.01
8.874840021133423,-2.53,-7.64,1.06,8.11
8.875690937042236,-2.64,-7.77,0.94,8.25
8.893059968948364,-2.66,-7.93,0.68,8.39
8.894589900970459,-2.62,-8.2,0.38,8.61
8.909449100494385,-2.58,-8.53,0.17,8.91
8.911020040512085,-2.61,-8.82,0.14,9.19
8.924446105957031,-2.75,-8.95,0.17,9.36
8.930495023727417,-2.86,-8.93,0.1,9.37
8.941399097442627,-2.86,-8.92,-0.02,9.36
8.977135181427002,-2.77,-9.04,-0.15,9.45
8.978646039962769,-2.65,-9.24,-0.24,9.61
8.979631900787354,-2.64,-9.31,-0.31,9.68
8.99232816696167,-2.73,-9.19,-0.17,9.58
8.99338698387146,-2.27,-9.18,0.29,9.46
9.00784707069397,-0.91,-9.57,0.71,9.63
9.010715007781982,0.55,-10.01,0.61,10.04
9.023879051208496,1.42,-10.0,0.22,10.1
9.031005859375,1.71,-9.37,0.08,9.52
9.040978908538818,1.43,-8.26,0.44,8.39
9.077083110809326,0.63,-7.09,0.8,7.16
9.078613996505737,0.13,-6.25,1.1,6.34
9.079625129699707,0.75,-6.23,1.33,6.41
9.09254503250122,2.68,-7.03,1.29,7.63
9.093439102172852,4.92,-8.03,0.93,9.46
9.107221126556396,6.85,-8.94,0.56,11.27
9.111199855804443,8.29,-9.51,0.35,12.62
9.12411117553711,9.12,-9.59,0.22,13.23
9.1317880153656,8.97,-9.14,0.36,12.81
9.141695976257324,7.79,-8.07,0.61,11.23
9.177002906799316,6.22,-6.65,0.9,9.14
9.17854905128479,4.93,-5.41,1.08,7.39
9.17949104309082,4.1,-4.61,1.13,6.27
9.192481994628906,3.58,-4.25,1.2,5.68
9.193525075912476,3.17,-3.97,1.38,5.26
9.207374095916748,2.88,-3.65,1.56,4.9
9.211847066879272,2.75,-3.08,1.79,4.5
9.22388505935669,2.86,-2.31,2.07,4.21
9.232438087463379,3.29,-1.47,2.29,4.26
9.24228811264038,3.77,-0.57,2.29,4.44
9.277127027511597,4.1,0.28,2.1,4.61
9.27882719039917,4.28,1.05,1.86,4.78
9.279798984527588,4.44,1.61,1.64,4.99
9.282342910766602,4.65,2.07,1.42,5.28
9.292451858520508,4.7,2.66,1.54,5.61
9.302236080169678,4.59,3.18,2.0,5.93
9.312717914581299,4.44,3.82,2.12,6.22
9.322829008102417,4.08,4.48,1.72,6.29
9.333248138427734,3.64,4.97,1.41,6.31
9.343172073364258,3.3,5.33,1.31,6.4
9.377256870269775,2.99,5.53,1.21,6.4
9.378473043441772,2.74,5.7,1.21,6.43
9.379386901855469,2.55,5.96,1.34,6.61
9.393066883087158,2.36,6.32,1.43,6.89
9.394113063812256,2.35,6.64,1.55,7.21
9.407639980316162,2.48,6.93,1.68,7.54
9.413168907165527,2.64,7.27,1.73,7.92
9.424137115478516,2.89,7.58,1.73,8.29
9.433340072631836,3.17,7.92,1.78,8.71
9.44359803199768,3.45,8.29,1.81,9.15
9.478424072265625,3.84,8.63,1.79,9.61
9.479950904846191,4.31,8.89,1.72,10.02
9.480926036834717,4.89,9.04,1.61,10.4
9.492743015289307,5.43,9.17,1.37,10.74
9.493813037872314,6.07,9.24,1.05,11.1
9.507695198059082,6.61,9.29,0.72,11.42
9.513736009597778,7.04,9.44,0.39,11.78
9.524134159088135,7.43,9.63,0.07,12.16
9.534029960632324,7.75,9.74,-0.2,12.44
9.544370174407959,8.11,9.74,-0.47,12.68
9.580967903137207,8.45,9.65,-0.77,12.84
9.582539081573486,8.69,9.43,-1.0,12.86
9.583515167236328,8.66,9.14,-1.19,12.64
9.59258508682251,8.13,8.72,-1.34,11.99
9.594281196594238,7.47,8.03,-1.12,11.02
9.607591152191162,7.03,6.88,-0.28,9.84
9.61428689956665,6.9,5.5,1.35,8.92
9.624340057373047,7.34,4.55,3.32,9.25
9.634531021118164,7.8,4.36,4.71,10.1
9.644689083099365,8.14,4.53,5.12,10.62
9.681843996047974,8.89,4.38,5.0,11.1
9.68339490890503,10.0,3.62,4.87,11.69
9.684404850006104,10.95,2.53,4.61,12.14
9.693186044692993,11.61,1.58,4.07,12.4
9.694870948791504,11.91,0.71,3.35,12.39
9.707826137542725,11.9,0.08,2.59,12.17
9.71527910232544,11.64,-0.36,2.12,11.83
9.725229024887085,11.26,-0.78,1.8,11.42
9.735249996185303,10.71,-1.35,1.57,10.9
9.745625972747803,9.91,-1.98,1.54,10.22
9.782135963439941,8.98,-2.48,1.66,9.46
9.783679962158203,7.92,-2.75,1.7,8.55
9.784648895263672,6.79,-3.06,1.71,7.64
9.786634922027588,5.78,-3.42,2.05,7.02
9.795580863952637,4.65,-3.31,2.29,6.15
9.80521297454834,3.51,-3.39,1.87,5.22
9.815582036972046,2.53,-3.7,1.51,4.72
9.825690984725952,1.75,-4.03,1.66,4.69
9.835756063461304,1.06,-4.17,1.77,4.65
9.846184968948364,0.6,-4.54,1.79,4.91
9.882429122924805,0.37,-4.91,1.97,5.3
9.883991003036499,0.2,-5.4,2.12,5.8
9.884913921356201,0.12,-5.95,2.16,6.33
9.892802000045776,0.12,-6.52,2.13,6.86
9.89610505104065,0.13,-7.06,2.15,7.38
9.907095909118652,0.18,-7.45,2.28,7.79
9.916030883789062,0.19,-7.85,2.38,8.2
9.926764011383057,0.14,-8.1,2.35,8.43
9.936330080032349,0.08,-8.26,2.26,8.56
9.946392059326172,0.11,-8.48,2.07,8.72
9.979255199432373,0.25,-8.89,1.72,9.05
9.980802059173584,0.34,-9.35,1.36,9.45
9.981781959533691,0.28,-9.8,1.13,9.86
9.992671966552734,0.11,-10.21,1.08,10.26
9.996412992477417,-0.27,-10.48,1.06,10.53
10.007560968399048,-0.85,-10.56,1.02,10.64
10.01655912399292,-1.46,-10.5,1.01,10.64
10.026898860931396,-2.0,-10.48,0.98,10.71
10.036962985992432,-2.47,-10.46,1.04,10.79
10.047075986862183,-2.75,-10.56,1.13,10.97
10.08370590209961,-2.85,-10.74,1.15,11.17
10.085206985473633,-2.9,-10.95,1.01,11.37
10.086145877838135,-3.02,-11.05,0.86,11.48
10.092880010604858,-3.09,-11.02,0.74,11.46
10.096956968307495,-3.05,-10.96,0.67,11.39
10.107664108276367,-2.99,-10.93,0.62,11.34
10.11728811264038,-3.0,-10.82,0.6,11.24
10.127465009689331,-3.03,-10.64,0.62,11.08
10.137790203094482,-3.08,-10.43,0.72,10.89
10.147592067718506,-3.07,-10.19,0.81,10.67
10.184376001358032,-2.54,-10.0,0.93,10.35
10.1859450340271,-0.85,-10.18,0.99,10.26
10.186893939971924,1.13,-10.52,0.7,10.6
10.192975044250488,2.25,-10.27,0.3,10.51
10.19757604598999,2.38,-9.44,0.07,9.73
10.208147048950195,2.18,-8.4,0.26,8.68
10.21778917312622,2.87,-7.93,0.63,8.45
10.228087902069092,4.71,-8.51,0.56,9.74
10.238533020019531,6.95,-9.67,0.13,11.9
10.248279094696045,8.67,-10.52,-0.27,13.63
10.284419059753418,9.55,-10.88,-0.48,14.48
10.286174058914185,9.64,-10.6,-0.22,14.32
10.287200927734375,8.98,-9.72,0.3,13.23
10.28893518447876,7.88,-8.26,0.91,11.45
10.298242092132568,6.62,-6.7,1.52,9.54
10.308426856994629,5.58,-5.41,1.92,8.0
10.318372011184692,5.16,-4.69,2.04,7.26
10.328649044036865,5.06,-4.31,2.21,7.0
10.33889389038086,4.81,-3.95,2.51,6.71
10.348891019821167,4.68,-3.66,2.09,6.29
10.389216899871826,4.91,-3.2,2.17,6.24
10.390698909759521,5.12,-2.36,2.21,6.05
10.391618967056274,5.07,-1.27,2.14,5.64
10.409811973571777,4.99,-0.23,1.86,5.33
10.411428928375244,4.98,0.66,1.42,5.22
10.424270153045654,5.04,1.47,1.0,5.34
10.425912857055664,4.82,2.14,0.58,5.3
10.44121503829956,4.61,2.56,0.61,5.3
10.44296908378601,4.37,3.08,1.3,5.5
10.458386898040771,4.04,3.7,1.58,5.7
10.479850053787231,3.76,4.18,1.34,5.77
10.481364965438843,3.34,4.56,1.55,5.86
10.482326984405518,2.96,4.89,1.38,5.88
10.493224143981934,2.68,4.99,1.05,5.76
10.499332904815674,2.48,5.14,1.11,5.81
10.509459972381592,2.34,5.29,1.12,5.89
10.519922018051147,2.33,5.44,1.15,6.02
10.529950141906738,2.63,5.58,1.31,6.3
10.539977073669434,3.12,5.72,1.66,6.72
10.550032138824463,3.51,6.0,2.11,7.26
10.587417125701904,3.81,6.41,2.49,7.86
10.5889310836792,4.22,6.82,2.86,8.51
10.58989405632019,4.62,7.24,3.16,9.15
10.593317985534668,5.11,7.69,3.41,9.84
10.59993600845337,5.7,8.13,3.5,10.52
10.610183000564575,6.31,8.5,3.48,11.14
10.620735168457031,6.89,8.8,3.31,11.65
10.630576133728027,7.46,9.01,3.07,12.09
10.640740871429443,7.99,9.18,2.87,12.5
10.650639057159424,8.38,9.35,2.72,12.84
10.68808102607727,8.71,9.56,2.52,13.17
10.689630031585693,8.87,9.88,2.32,13.47
10.69068717956543,8.89,10.19,2.16,13.69
10.693384170532227,9.04,10.28,1.99,13.83
10.700632095336914,9.16,10.1,1.7,13.74
10.710880041122437,8.96,9.84,1.22,13.36
10.721179008483887,8.25,9.67,0.71,12.73
10.731049060821533,7.22,9.57,0.49,11.99
10.741230964660645,6.19,9.28,0.63,11.17
10.751247882843018,5.39,8.61,1.31,10.24
10.788264989852905,5.18,7.6,2.48,9.52
10.789844989776611,5.88,6.49,3.96,9.61
10.790800094604492,7.16,5.73,4.97,10.43
10.793284893035889,8.31,5.31,4.9,11.01
10.801164150238037,9.19,4.93,4.16,11.22
10.811366081237793,10.13,4.26,3.57,11.55
10.821794986724854,11.14,3.08,3.28,12.01
10.831609010696411,11.72,1.83,2.91,12.21
10.842195987701416,11.69,0.75,2.31,11.93
10.852048873901367,11.26,0.03,1.64,11.37
10.889015197753906,10.8,-0.66,1.24,10.89
10.89051103591919,10.55,-1.56,1.25,10.73
10.891541004180908,10.37,-2.59,1.56,10.8
10.911343097686768,10.05,-3.4,1.95,10.78
10.912898063659668,9.44,-3.82,2.23,10.42
10.925464153289795,8.67,-3.89,2.53,9.83
10.927722930908203,7.96,-3.87,2.9,9.31
10.943856000900269,7.13,-3.84,3.31,8.74
10.94665002822876,6.2,-3.76,3.63,8.1
10.959267139434814,5.17,-3.7,3.73,7.37
10.990127086639404,4.12,-3.78,3.66,6.68
10.991681098937988,3.22,-3.95,3.57,6.22
10.99268102645874,2.55,-4.19,3.51,6.03
11.010251998901367,2.07,-4.51,3.48,6.06
11.011317014694214,1.71,-4.87,3.4,6.18
11.02496600151062,1.46,-5.25,3.25,6.34
11.02660608291626,1.3,-5.63,3.0,6.51
11.041491985321045,1.11,-6.1,2.69,6.75
11.043714046478271,0.83,-6.61,2.41,7.08
11.058369159698486,0.47,-7.09,2.22,7.44
11.088949203491211,0.09,-7.56,2.07,7.83
11.090407848358154,-0.36,-7.99,1.92,8.22
11.091386079788208,-0.84,-8.3,1.78,8.53
11.110342025756836,-1.25,-8.63,1.63,8.87
11.111387968063354,-1.6,-8.95,1.5,9.21
11.125,-1.92,-9.31,1.34,9.59
11.1266450881958,-2.23,-9.68,1.3,10.01
11.141535997390747,-2.46,-9.99,1.42,10.38
11.143646001815796,-2.76,-10.19,1.42,10.65
11.158155918121338,-3.15,-10.34,1.29,10.88
11.189532995223999,-3.71,-10.27,1.13,10.97
11.19127893447876,-4.36,-10.14,1.06,11.08
11.192264080047607,-4.83,-10.13,1.18,11.28
11.210379123687744,-5.04,-10.18,1.33,11.43
11.211413860321045,-4.97,-10.43,1.32,11.62
11.22518801689148,-4.73,-10.8,1.14,11.84
11.226799964904785,-4.38,-11.19,0.9,12.05
11.241762161254883,-4.05,-11.54,0.65,12.24
11.244044065475464,-3.83,-11.8,0.4,12.41
11.258527040481567,-3.8,-11.9,0.32,12.49
11.292488098144531,-3.94,-11.75,0.38,12.39
11.294061183929443,-4.25,-11.31,0.5,12.09
11.29498815536499,-4.46,-10.7,0.64,11.6
11.29684591293335,-4.13,-10.19,0.96,11.03
11.304121017456055,-2.52,-10.11,1.48,10.52
11.314340114593506,0.13,-10.71,1.57,10.82
11.324399948120117,2.48,-11.45,1.09,11.76
11.334682941436768,4.15,-11.8,0.5,12.51
11.344839096069336,4.88,-11.54,-0.09,12.52
11.35500192642212,4.9,-10.85,-0.46,11.91
11.389469146728516,4.95,-10.34,-0.28,11.46
11.391067028045654,5.29,-10.13,0.21,11.43
11.392014026641846,6.15,-10.26,0.58,11.97
11.411731004714966,7.12,-10.49,0.72,12.69
11.413311004638672,7.8,-10.56,0.81,13.15
11.425739049911499,8.21,-10.32,0.91,13.21
11.427869081497192,8.28,-9.76,1.01,12.83
11.441642045974731,8.06,-8.84,1.17,12.01
11.445364952087402,7.62,-7.69,1.29,10.9
11.458667993545532,6.98,-6.49,1.38,9.63
11.48906397819519,6.3,-5.6,1.47,8.55
11.49064016342163,5.64,-4.86,1.47,7.58
11.491508960723877,5.1,-4.18,1.28,6.71
11.511573076248169,4.64,-3.45,1.03,5.87
11.513070106506348,4.21,-2.63,0.75,5.02
11.52585220336914,3.84,-1.85,0.5,4.29
11.528234004974365,3.62,-1.05,0.37,3.78
11.541804075241089,3.53,-0.25,0.12,3.54
11.546331882476807,3.62,0.35,-0.27,3.64
11.558902978897095,3.71,0.78,-0.43,3.81
11.592687129974365,3.84,0.93,-0.5,3.98
11.594223022460938,4.03,0.88,0.38,4.14
11.595185995101929,3.8,1.36,1.56,4.32
11.610802173614502,3.35,1.83,2.08,4.34
11.61182689666748,2.96,2.44,1.98,4.31
11.625159978866577,2.77,3.04,1.82,4.49
11.626834869384766,2.91,3.33,1.93,4.82
11.641793966293335,3.22,3.59,2.06,5.24
11.64689016342163,3.54,3.97,2.2,5.75
11.658818006515503,3.91,4.43,2.38,6.37
11.69160509109497,4.48,4.93,2.5,7.11
11.693142890930176,5.11,5.48,2.55,7.91
11.694100856781006,5.58,6.04,2.67,8.64
11.710941076278687,6.03,6.63,2.94,9.43
11.712492942810059,6.51,7.26,3.19,10.25
11.725098133087158,7.04,7.87,3.38,11.08
11.72792387008667,7.86,8.4,3.43,12.0
11.742110967636108,8.65,8.87,3.37,12.83
11.747377872467041,9.28,9.39,3.29,13.6
11.758901119232178,9.77,9.95,3.2,14.3
11.796227931976318,10.17,10.44,3.04,14.88
11.797812938690186,10.3,10.79,2.84,15.18
11.798768997192383,10.16,11.05,2.68,15.24
11.800568103790283,9.89,11.19,2.59,15.15
11.807167053222656,9.56,11.2,2.52,14.93
11.817138195037842,9.11,11.08,2.47,14.55
11.827352046966553,8.68,10.86,2.47,14.12
11.837424039840698,8.21,10.45,2.52,13.52
11.847805976867676,7.66,9.96,2.67,12.84
11.858427047729492,7.2,9.44,3.05,12.25
11.891386985778809,7.25,8.67,3.8,11.92
11.892940998077393,8.2,8.01,4.71,12.39
11.893909931182861,9.65,7.79,5.23,13.45
11.911081075668335,10.97,7.76,5.05,14.35
11.912425994873047,11.89,7.74,4.38,14.84
11.926216125488281,12.1,7.29,3.77,14.62
11.928624153137207,12.09,6.41,3.54,14.13
11.941902160644531,11.87,5.3,3.17,13.38
11.948392868041992,11.55,4.03,2.6,12.5
11.961344003677368,11.52,2.89,2.17,12.07
11.995903968811035,11.99,1.86,1.83,12.27
11.997438907623291,12.69,0.69,1.6,12.8
11.998477935791016,13.29,-0.66,1.51,13.39
12.010885000228882,13.6,-2.02,1.72,13.85
12.011945009231567,13.35,-3.12,2.19,13.88
12.025691986083984,12.52,-3.8,2.64,13.34
12.029124021530151,11.34,-4.09,2.88,12.39
12.041379928588867,9.96,-4.27,2.9,11.21
12.049411058425903,8.59,-4.44,2.83,10.07
12.058953046798706,7.36,-4.66,2.78,9.14
12.093830108642578,6.28,-4.93,2.73,8.43
12.095384120941162,5.4,-5.35,2.64,8.04
12.096325874328613,4.55,-5.55,2.56,7.61
12.111016988754272,3.67,-5.83,2.11,7.2
12.112048149108887,3.12,-6.5,2.01,7.48
12.126373052597046,2.58,-6.77,1.9,7.48
12.129694938659668,2.03,-7.13,1.7,7.6
12.14266300201416,1.64,-7.55,1.79,7.93
12.149379014968872,1.22,-7.83,1.9,8.14
12.159401893615723,0.92,-8.03,2.0,8.32
12.197587966918945,0.72,-8.27,2.05,8.55
12.1991548538208,0.56,-8.54,2.05,8.8
12.200016021728516,0.45,-8.72,1.99,8.95
12.210527896881104,0.54,-8.86,1.86,9.06
12.211564064025879,0.65,-9.08,1.68,9.25
12.22501516342163,0.68,-9.43,1.47,9.56
12.229586124420166,0.71,-10.07,1.44,10.19
12.242097854614258,0.71,-10.73,1.47,10.85
12.249864101409912,0.46,-11.33,1.43,11.42
12.260071992874146,-0.01,-11.84,1.36,11.91
12.294380187988281,-0.49,-12.29,1.29,12.36
12.29594612121582,-1.36,-12.6,1.2,12.72
12.296925067901611,-2.51,-12.67,1.25,12.97
12.299787044525146,-3.66,-12.74,1.56,13.34
12.31019902229309,-4.43,-12.88,1.92,13.75
12.319867134094238,-4.79,-13.01,1.82,13.98
12.330358028411865,-4.8,-13.26,1.21,14.15
12.340451002120972,-4.61,-13.52,0.5,14.29
12.350334167480469,-4.58,-13.69,-0.12,14.43
12.360648155212402,-4.69,-13.65,-0.54,14.44
12.396496057510376,-4.93,-13.29,-0.81,14.19
12.39804220199585,-5.13,-12.89,-0.77,13.89
12.399031162261963,-4.64,-12.83,-0.53,13.65
12.410882949829102,-3.16,-13.28,-0.21,13.65
12.411820888519287,-1.47,-13.81,-0.06,13.88
12.425543069839478,-0.3,-13.98,0.06,13.98
12.43073296546936,0.31,-13.75,0.33,13.75
12.442256927490234,0.22,-13.02,0.8,13.04
12.451771974563599,-0.06,-12.01,1.64,12.12
12.461353063583374,0.03,-11.17,2.52,11.45
12.49538803100586,0.95,-10.72,2.99,11.16
12.49689507484436,2.84,-10.83,2.9,11.56
12.497873067855835,5.1,-11.26,2.55,12.62
12.510655879974365,6.99,-11.61,2.13,13.71
12.511749982833862,8.26,-11.67,1.71,14.39
12.525789022445679,8.86,-11.34,1.38,14.45
12.5313720703125,8.73,-10.43,1.24,13.65
12.542365074157715,8.25,-9.21,1.42,12.44
12.551621913909912,7.62,-8.02,1.46,11.15
12.561882972717285,7.18,-7.21,1.6,10.3
12.597550868988037,7.13,-6.47,1.6,9.76
12.598993062973022,6.58,-5.84,1.19,8.87
12.599976062774658,6.25,-5.13,1.29,8.18
12.610637187957764,5.97,-4.39,1.34,7.53
12.611728191375732,5.6,-3.65,1.29,6.8
12.625990867614746,5.33,-2.97,1.28,6.23
12.632101058959961,5.15,-2.19,1.22,5.72
12.642924070358276,5.01,-1.43,1.04,5.31
12.652402877807617,5.17,-1.04,1.45,5.46
12.663219928741455,5.37,-0.4,1.8,5.67
12.696645021438599,5.83,-0.09,1.93,6.14
12.698185920715332,6.22,0.3,3.28,7.03
12.699161052703857,6.23,1.0,4.53,7.76
12.711462020874023,5.73,1.96,4.46,7.52
12.716209888458252,5.19,2.92,4.01,7.17
12.726507186889648,5.02,3.43,4.12,7.34
12.73675799369812,4.91,3.75,4.17,7.45
12.746814966201782,4.81,4.24,3.89,7.49
12.757276058197021,4.68,4.85,3.65,7.66
12.766955852508545,4.63,5.44,3.62,8.0
12.799354076385498,4.74,5.94,3.66,8.43
12.800904989242554,5.04,6.35,3.69,8.9
12.80184006690979,5.38,6.77,3.78,9.43
12.806795120239258,5.72,7.27,3.96,10.06
12.81690001487732,6.09,7.82,4.16,10.74
12.82701587677002,6.55,8.42,4.29,11.49
12.83731198310852,7.05,9.03,4.31,12.24
12.847410202026367,7.44,9.68,4.18,12.9
12.857554912567139,7.81,10.22,4.03,13.47
12.86757206916809,8.23,10.55,3.88,13.93
12.89941692352295,8.82,10.83,3.71,14.45
12.900956153869629,9.33,11.16,3.44,14.94
12.901895999908447,9.73,11.43,3.17,15.34
12.910892963409424,10.0,11.62,3.01,15.62
12.917416095733643,10.11,11.72,2.98,15.76
12.927721977233887,10.04,11.66,2.96,15.66
12.937774181365967,9.64,11.42,2.96,15.23
12.948044061660767,9.13,10.97,3.08,14.6
12.958200931549072,8.69,10.36,3.29,13.91
12.968199014663696,8.08,9.52,3.6,12.99
12.999664068222046,7.36,8.54,4.25,12.04
13.001175880432129,7.24,7.56,5.38,11.76
13.00211501121521,8.19,7.08,6.5,12.62
13.011206150054932,9.45,6.98,7.05,13.7
13.018065929412842,10.42,6.72,6.93,14.2
13.02829885482788,11.28,5.99,6.93,14.53
13.038587093353271,12.59,5.03,7.22,15.36
13.049154043197632,14.02,4.21,6.93,16.19
13.059207916259766,14.92,3.55,5.81,16.4
13.069131851196289,15.14,2.94,4.32,16.01
13.100696086883545,14.91,2.1,3.21,15.39
13.102223873138428,14.59,0.96,2.66,14.86
13.103235006332397,14.23,-0.34,2.47,14.44
13.111307144165039,13.72,-1.63,2.41,14.02
13.118863105773926,12.98,-2.78,2.31,13.47
13.12932801246643,12.16,-3.87,2.22,12.95
13.13962697982788,11.26,-4.9,2.25,12.48
13.149156093597412,10.17,-5.66,2.33,11.86
13.15931510925293,9.02,-6.2,2.38,11.2
13.169453144073486,7.96,-6.75,2.5,10.73
13.203271865844727,7.06,-7.24,2.75,10.47
13.204833030700684,6.02,-7.48,2.79,9.99
13.205831050872803,5.11,-7.93,2.69,9.8
13.210923194885254,4.37,-8.16,2.68,9.63
13.219109058380127,3.55,-8.36,2.28,9.36
13.22932505607605,2.93,-8.71,2.26,9.46
13.239899158477783,2.44,-8.92,2.36,9.54
13.24993896484375,2.01,-9.11,2.22,9.58
13.260082006454468,1.77,-9.33,2.0,9.7
13.270225048065186,1.67,-9.56,1.8,9.87
13.298595905303955,1.54,-9.74,1.7,10.0
13.300268173217773,1.38,-9.78,1.64,10.01
13.301258087158203,1.15,-9.65,1.53,9.83
13.311199188232422,0.98,-9.69,1.44,9.84
13.320049047470093,0.98,-9.75,1.53,9.91
13.330173969268799,0.97,-9.79,1.6,9.96
13.340296983718872,0.85,-9.95,1.62,10.11
13.350383043289185,0.64,-10.14,1.65,10.29
13.360624074935913,0.32,-10.3,1.67,10.43
13.370609998703003,-0.18,-10.3,1.74,10.44
13.404398918151855,-0.74,-10.36,1.79,10.53
13.406028985977173,-1.2,-10.56,1.72,10.76
13.40700101852417,-1.56,-10.9,1.46,11.1
13.410837173461914,-1.88,-11.41,1.12,11.61
13.426322937011719,-2.2,-12.06,0.82,12.28
13.430706977844238,-2.64,-12.62,0.69,12.91
13.443152904510498,-3.14,-12.9,0.76,13.29
13.450971126556396,-3.75,-12.84,0.93,13.4
13.461234092712402,-4.43,-12.53,1.09,13.33
13.471220970153809,-4.96,-12.17,1.22,13.19
13.506510972976685,-5.14,-11.93,1.27,13.05
13.508084058761597,-4.89,-11.85,1.28,12.88
13.509082078933716,-4.3,-11.89,1.22,12.7
13.511214971542358,-3.23,-12.05,1.09,12.52
13.521039962768555,-1.82,-12.46,0.86,12.62
13.531113147735596,-0.49,-12.94,0.5,12.95
13.541298866271973,0.41,-13.11,0.09,13.11
13.551618099212646,0.91,-12.85,-0.16,12.88
13.561683177947998,1.05,-12.28,-0.16,12.32
13.57174015045166,0.9,-11.5,0.25,11.53
13.60190200805664,0.98,-10.89,0.85,10.96
13.603543996810913,1.6,-10.62,1.24,10.81
13.604541063308716,2.72,-10.82,0.95,11.19
13.611618995666504,4.16,-11.25,0.49,12.0
13.621761083602905,5.68,-11.66,0.19,12.97
13.631965160369873,7.06,-11.96,-0.12,13.88
13.642261028289795,7.93,-11.85,-0.34,14.26
13.652638912200928,8.3,-11.28,-0.42,14.01
13.662426948547363,8.05,-10.16,-0.28,12.96
13.67245602607727,7.35,-8.73,0.14,11.41
13.70607304573059,6.75,-7.54,0.57,10.13
13.707592964172363,6.22,-6.65,0.78,9.13
13.70858097076416,5.9,-6.11,0.87,8.53
13.71272087097168,5.75,-5.7,0.83,8.13
13.722221851348877,5.78,-5.24,0.87,7.85
13.73257303237915,5.86,-4.57,1.11,7.51
13.742586135864258,5.88,-3.8,1.41,7.14
13.75278615951538,6.05,-2.92,1.48,6.87
13.762889862060547,6.13,-1.91,1.41,6.57
13.773561954498291,6.25,-1.07,1.15,6.44
13.805589199066162,6.72,-0.72,1.13,6.85
13.807129859924316,7.25,-0.25,1.68,7.44
13.808125019073486,7.32,0.4,1.96,7.58
13.812865972518921,7.46,0.77,2.26,7.83
13.82279896736145,7.51,1.3,3.15,8.24
13.833019018173218,7.26,1.91,3.77,8.4
13.843082904815674,6.81,2.42,3.61,8.07
13.853396892547607,6.26,2.95,3.37,7.69
13.863606929779053,5.87,3.25,3.44,7.54
13.873831987380981,5.59,3.45,3.51,7.44
13.907163143157959,5.49,3.71,3.49,7.48
13.908683061599731,5.58,3.96,3.6,7.73
13.909677028656006,5.75,4.31,3.84,8.14
13.929517984390259,5.91,4.82,4.1,8.65
13.931112051010132,5.98,5.49,4.29,9.18
13.942750930786133,6.11,6.26,4.4,9.79
13.945301055908203,6.35,7.02,4.42,10.44
13.95969820022583,6.73,7.72,4.35,11.12
13.964215993881226,7.13,8.36,4.19,11.75
13.97661018371582,7.52,8.93,4.02,12.34
13.999281883239746,8.05,9.31,3.87,12.9
14.000822067260742,8.47,9.69,3.63,13.37
14.004315853118896,8.83,10.14,3.29,13.84
14.014120101928711,9.13,10.65,2.9,14.32
14.024168968200684,9.27,11.18,2.46,14.73
14.034483909606934,9.35,11.56,2.04,15.0
14.044611930847168,9.41,11.7,1.77,15.11
14.054741859436035,9.52,11.6,1.6,15.09
14.065123081207275,9.36,11.38,1.61,14.82
14.075075149536133,9.4,10.79,2.15,14.47
14.111150026321411,9.94,9.7,3.27,14.26
14.1127028465271,11.0,8.83,4.42,14.78
14.113699913024902,11.9,8.54,5.11,15.51
14.128437995910645,12.22,8.68,5.32,15.9
14.129488945007324,11.78,8.76,5.32,15.61
14.14299488067627,11.3,8.16,5.69,15.05
14.145004987716675,11.15,6.88,6.16,14.47
14.159447193145752,10.93,5.39,6.01,13.58
14.165219068527222,10.78,4.16,5.42,12.76
14.176639080047607,10.9,3.26,4.8,12.34
14.207756996154785,11.34,2.44,4.22,12.34
14.209143161773682,12.02,1.45,3.62,12.63
14.210066080093384,12.62,0.31,3.24,13.03
14.22933292388916,12.8,-0.79,3.02,13.17
14.230460166931152,12.6,-1.64,2.93,13.03
14.243782043457031,11.86,-2.17,2.85,12.38
14.24590015411377,10.83,-2.45,2.74,11.43
14.259021997451782,9.84,-2.75,2.61,10.54
14.265626907348633,8.88,-3.15,2.47,9.74
14.276348114013672,7.97,-3.53,2.36,9.03
14.30488395690918,7.18,-3.91,2.32,8.49
14.30652403831482,6.55,-4.42,2.24,8.21
14.307564973831177,6.05,-4.99,2.12,8.12
14.315971851348877,5.59,-5.56,2.0,8.13
14.327942848205566,5.17,-6.18,1.93,8.28
14.336048126220703,4.73,-6.7,1.93,8.42
14.34636402130127,4.2,-7.1,1.8,8.44
14.3563551902771,3.69,-7.58,1.78,8.61
14.366688013076782,3.3,-7.96,1.97,8.83
14.376450061798096,3.0,-8.26,2.06,9.02
14.407380104064941,2.72,-8.52,1.99,9.16
14.408924102783203,2.47,-8.72,1.87,9.25
14.409896850585938,2.24,-8.94,1.8,9.39
14.428258895874023,1.91,-9.09,1.77,9.45
14.429270029067993,1.52,-9.18,1.7,9.45
14.443090915679932,1.15,-9.19,1.59,9.39
14.446761131286621,0.84,-9.22,1.36,9.35
14.459865093231201,0.58,-9.55,1.06,9.62
14.467268943786621,0.32,-10.05,0.87,10.09
14.477074146270752,0.05,-10.54,0.75,10.56
14.511670112609863,-0.37,-10.95,0.62,10.97
14.513236999511719,-1.01,-11.24,0.5,11.29
14.514225959777832,-1.54,-11.56,0.54,11.67
14.528341054916382,-1.91,-11.93,0.82,12.1
14.529417037963867,-2.36,-12.42,1.31,12.7
14.543527126312256,-3.01,-12.78,1.78,13.24
14.547502994537354,-3.71,-12.74,2.12,13.43
14.559736967086792,-4.25,-12.54,2.33,13.44
14.567583084106445,-4.48,-12.34,2.38,13.34
14.577862024307251,-4.37,-12.2,2.17,13.13
14.607833862304688,-4.08,-12.28,1.74,13.05
14.609374046325684,-3.76,-12.46,1.29,13.07
14.610392093658447,-3.28,-12.53,1.16,13.0
14.629144191741943,-2.17,-12.67,1.47,12.93
14.630745887756348,-0.75,-13.11,1.54,13.22
14.643220901489258,0.24,-13.31,1.05,13.35
14.64830207824707,0.56,-13.0,0.46,13.02
14.659884929656982,0.26,-12.23,0.17,12.23
14.668354988098145,-0.13,-11.41,0.39,11.41
14.678462982177734,-0.01,-10.91,0.92,10.94
14.71150016784668,0.77,-10.94,1.0,11.01
14.713073015213013,1.89,-11.25,0.73,11.43
14.714052200317383,3.23,-11.54,0.56,11.99
14.729175090789795,4.63,-11.65,0.55,12.54
14.730247020721436,5.68,-11.62,0.54,12.94
14.743643999099731,6.31,-11.33,0.31,12.97
14.748846054077148,6.51,-10.72,0.01,12.54
14.76003098487854,6.19,-9.84,-0.01,11.62
14.768988132476807,5.6,-8.85,0.28,10.47
14.779083013534546,5.13,-7.91,0.52,9.44
14.812036991119385,4.74,-7.24,0.44,8.66
14.813589096069336,4.32,-6.77,0.3,8.03
14.81459093093872,3.91,-6.34,0.22,7.45
14.82887601852417,3.52,-5.82,0.22,6.8
14.829822063446045,3.2,-5.27,0.28,6.17
14.843431949615479,3.11,-4.79,0.38,5.72
14.849488019943237,3.26,-4.44,0.56,5.53
14.859827995300293,3.52,-4.02,0.77,5.39
14.869685173034668,3.78,-3.44,0.99,5.2
14.879842042922974,4.09,-2.59,1.12,4.96
14.912255048751831,4.8,-1.99,0.83,5.26
14.913809061050415,5.73,-1.84,1.26,6.14
14.91480803489685,6.71,-1.57,2.02,7.18
14.929336071014404,7.66,-1.17,2.09,8.02
14.930901050567627,8.3,-1.04,2.07,8.61
14.943807125091553,8.49,-1.02,2.63,8.94
14.949985980987549,8.2,-0.45,3.18,8.8
14.96015214920044,7.66,0.51,3.47,8.42
14.970171928405762,7.32,1.46,3.84,8.39
14.980288982391357,7.21,2.32,4.23,8.67
15.013269901275635,7.28,3.19,4.5,9.13
15.014806985855103,7.48,4.03,4.78,9.74
15.015786170959473,7.76,4.81,5.11,10.46
15.028949975967407,7.99,5.65,5.36,11.15
15.03012204170227,7.98,6.61,5.48,11.72
15.043637990951538,7.87,7.63,5.58,12.3
15.050693035125732,7.77,8.56,5.74,12.9
15.060633182525635,7.85,9.31,5.78,13.47
15.070780992507935,8.0,9.86,5.64,13.89
15.080854892730713,8.21,10.22,5.43,14.18
15.11329984664917,8.28,10.47,5.2,14.32
15.114852905273438,8.2,10.69,5.03,14.38
15.115844011306763,8.22,10.99,4.76,14.52
15.128676891326904,8.44,11.31,4.24,14.73
15.130635023117065,8.7,11.53,3.6,14.88
15.143505096435547,8.88,11.71,2.96,14.99
15.151104927062988,9.15,11.84,2.29,15.13
15.161257028579712,9.46,11.98,1.54,15.34
15.17136001586914,9.47,12.14,0.85,15.42
15.181530952453613,9.54,11.96,0.48,15.3
15.21415901184082,9.95,11.35,0.52,15.1
15.215713024139404,10.55,10.61,0.77,14.98
15.216726064682007,11.1,9.97,1.04,14.95
15.229757070541382,11.36,9.4,1.49,14.81
15.231293201446533,11.06,8.8,1.9,14.26
15.244286060333252,10.65,8.05,2.03,13.5
15.251936912536621,10.67,7.04,2.17,12.96
15.261856079101562,10.83,5.75,2.34,12.48
15.272056102752686,11.14,4.21,2.53,12.17
15.282126903533936,11.87,2.62,2.85,12.48
15.315123081207275,12.6,1.12,3.31,13.07
15.316632986068726,13.09,-0.2,3.73,13.61
15.31766414642334,13.26,-1.31,4.02,13.91
15.329045057296753,13.2,-2.21,4.33,14.06
15.33212399482727,12.89,-3.02,4.64,14.02
15.344656944274902,12.34,-3.71,4.76,13.73
15.35307788848877,11.53,-4.17,4.61,13.09
15.36234188079834,10.44,-4.37,4.28,12.09
15.372472047805786,9.2,-4.46,3.94,10.95
15.382722854614258,7.96,-4.54,3.66,9.86
15.415226936340332,6.84,-4.72,3.45,8.99
15.416543006896973,5.95,-5.03,3.27,8.44
15.417562007904053,5.28,-5.58,3.06,8.26
15.428590059280396,4.78,-6.25,2.85,8.36
15.432529926300049,4.31,-6.94,2.76,8.62
15.443642139434814,3.96,-7.59,2.72,8.98
15.45276689529419,3.71,-8.29,2.66,9.46
15.463016033172607,3.63,-9.07,2.63,10.11
15.473687171936035,3.5,-9.76,2.54,10.67
15.483244895935059,3.23,-10.34,2.36,11.08
15.515313148498535,3.02,-10.9,2.19,11.52
15.51687502861023,2.73,-11.31,2.13,11.82
15.517821073532104,2.31,-11.45,2.12,11.87
15.52883505821228,1.84,-11.34,1.97,11.65
15.533061027526855,1.35,-11.11,1.63,11.3
15.543703079223633,0.95,-10.93,1.24,11.04
15.553688049316406,0.6,-10.83,0.88,10.88
15.563653945922852,0.3,-10.74,0.58,10.75
15.57406497001648,-0.02,-10.57,0.3,10.57
15.583930969238281,-0.35,-10.4,0.0,10.4
15.616719007492065,-0.58,-10.23,-0.16,10.24
15.618207931518555,-0.52,-10.4,-0.38,10.41
15.619196891784668,-0.62,-10.8,-0.72,10.84
15.62883710861206,-1.0,-11.17,-1.15,11.27
15.633767127990723,-1.61,-11.39,-1.47,11.59
15.643915176391602,-2.37,-11.49,-1.55,11.83
15.654045104980469,-3.13,-11.54,-1.37,12.03
15.664355993270874,-3.84,-11.54,-1.04,12.2
15.674638032913208,-4.43,-11.4,-0.66,12.24
15.684442043304443,-4.79,-11.2,-0.28,12.18
15.717416048049927,-4.79,-11.02,0.18,12.01
15.718809127807617,-4.39,-10.98,0.74,11.84
15.719828128814697,-3.81,-11.07,1.19,11.76
15.728769063949585,-2.96,-11.32,1.56,11.8
15.734294891357422,-1.69,-11.94,1.69,12.17
15.744562149047852,-0.61,-12.86,1.44,12.95
15.754541873931885,0.02,-13.49,1.09,13.53
15.76493787765503,0.12,-13.23,0.95,13.26
15.774824142456055,-0.34,-12.24,1.24,12.3
15.785094976425171,-0.72,-11.13,1.77,11.29
15.817777156829834,-0.34,-10.56,2.17,10.78
15.819322109222412,0.69,-10.63,2.06,10.84
15.820311069488525,1.89,-10.86,1.32,11.1
15.829159021377563,3.2,-10.97,0.6,11.44
15.834926128387451,4.49,-11.1,0.15,11.97
15.845191955566406,5.41,-11.07,-0.2,12.32
15.855173110961914,5.98,-10.81,-0.39,12.35
15.86557388305664,6.21,-10.3,-0.27,12.03
15.875684022903442,6.09,-9.53,0.09,11.31
15.885717868804932,5.86,-8.65,0.39,10.45
15.918637990951538,5.71,-7.85,0.5,9.71
15.920192003250122,5.74,-7.21,0.46,9.22
15.921190023422241,5.92,-6.54,0.3,8.82
15.928998947143555,6.1,-5.89,0.11,8.48
15.935492038726807,6.4,-5.21,0.15,8.25
15.945945978164673,6.68,-4.53,0.42,8.08
15.95582389831543,6.98,-3.88,0.77,8.02
15.966140031814575,7.24,-3.26,1.05,8.0
15.976270198822021,7.41,-2.51,1.29,7.92
15.98629093170166,7.58,-1.66,1.3,7.86
16.017255067825317,7.92,-0.98,1.2,8.07
16.018834114074707,8.23,-0.3,1.81,8.43
16.019824028015137,8.48,0.41,2.26,8.78
16.030972003936768,8.53,1.01,2.51,8.94
16.03618288040161,8.47,1.57,2.69,9.02
16.046244144439697,8.33,2.18,2.85,9.06
16.05651617050171,7.93,2.82,2.94,8.91
16.066679000854492,7.44,3.4,3.08,8.74
16.076807022094727,7.12,3.79,3.37,8.74
16.086864948272705,6.79,4.02,3.84,8.77
16.11705493927002,6.44,4.32,4.38,8.9
16.11860704421997,5.93,4.88,4.78,9.04
16.119593143463135,5.11,5.7,5.0,9.14
16.130431175231934,4.22,6.64,5.05,9.34
16.13652205467224,3.71,7.48,4.99,9.72
16.146650075912476,3.11,8.5,4.94,10.31
16.15688419342041,3.33,8.87,4.79,10.61
16.16720700263977,3.7,9.04,4.43,10.72
16.177352905273438,4.01,9.18,3.95,10.76
16.18730592727661,4.35,9.33,3.41,10.84
16.219749927520752,4.74,9.35,2.88,10.87
16.221303939819336,5.17,9.33,2.32,10.91
16.222278118133545,5.74,9.21,1.75,10.99
16.2296781539917,6.53,9.01,1.24,11.19
16.237175941467285,7.48,8.86,0.75,11.61
16.24743413925171,8.3,8.91,0.21,12.17
16.25740385055542,8.91,9.09,-0.41,12.73
16.26781988143921,9.31,9.37,-0.99,13.24
16.277801036834717,9.43,9.69,-1.41,13.59
16.287962913513184,9.52,9.83,-1.4,13.75
16.317731857299805,9.8,9.52,-0.89,13.69
16.3193039894104,10.33,8.71,0.05,13.51
16.32029700279236,11.06,7.89,1.19,13.63
16.329130172729492,11.4,7.42,2.44,13.81
16.33777618408203,11.22,7.13,3.53,13.75
16.348201036453247,10.8,6.87,4.24,13.48
16.358124017715454,10.25,6.34,4.65,12.91
16.368412971496582,9.57,5.64,5.1,12.22
16.378551959991455,9.02,4.83,5.61,11.66
16.38858985900879,8.87,3.84,5.78,11.26
16.420968055725098,9.05,2.85,5.59,11.01
16.42248296737671,9.19,2.08,5.24,10.78
16.42345094680786,9.34,1.44,4.78,10.59
16.42924404144287,9.42,0.76,4.35,10.4
16.438351154327393,9.34,0.07,4.08,10.19
16.44897699356079,9.08,-0.58,3.91,9.9
16.45904016494751,8.79,-1.24,3.71,9.62
16.468950986862183,8.42,-1.91,3.55,9.33
16.479055881500244,7.9,-2.52,3.36,8.94
16.489054203033447,7.24,-3.02,3.14,8.44
16.519940853118896,6.55,-3.48,2.91,7.96
16.52153491973877,5.87,-3.93,2.68,7.55
16.52253007888794,5.23,-4.39,2.49,7.26
16.529438018798828,4.64,-4.84,2.37,7.11
16.53910803794861,4.05,-5.27,2.25,7.01
16.549355030059814,3.6,-5.71,2.11,7.07
16.55955219268799,3.22,-6.22,2.0,7.28
16.570085048675537,2.82,-6.63,1.92,7.45
16.5799880027771,2.49,-7.06,1.83,7.7
16.58976101875305,2.23,-7.52,1.85,8.05
16.62070894241333,1.93,-7.91,1.89,8.35
16.62224292755127,1.59,-8.2,1.88,8.56
16.623193979263306,1.21,-8.37,1.82,8.65
16.629722118377686,0.97,-8.66,1.74,8.88
16.639692068099976,0.77,-8.96,1.61,9.13
16.649811029434204,0.54,-9.23,1.43,9.35
16.660179138183594,0.31,-9.42,1.3,9.51
16.670082092285156,0.0,-9.47,1.27,9.55
16.68063998222351,-0.29,-9.45,1.34,9.54
16.69034194946289,-0.55,-9.45,1.39,9.56
16.72535800933838,-0.89,-9.47,1.43,9.61
16.726900100708008,-1.24,-9.5,1.46,9.69
16.727886199951172,-1.56,-9.57,1.46,9.8
16.74638605117798,-1.83,-9.77,1.44,10.04
16.747420072555542,-1.99,-10.04,1.34,10.32
16.760530948638916,-2.12,-10.42,1.17,10.69
16.76176905632019,-2.31,-10.93,1.0,11.21
16.777842044830322,-2.63,-11.42,0.88,11.75
16.780920028686523,-3.06,-11.8,0.87,12.22
16.794295072555542,-3.61,-11.91,0.92,12.47
16.818492889404297,-4.2,-11.68,1.03,12.45
16.820056915283203,-4.7,-11.21,1.2,12.21
16.821081161499023,-4.88,-10.67,1.38,11.81
16.83088493347168,-4.63,-10.36,1.5,11.44
16.840877056121826,-3.79,-10.45,1.58,11.22
16.85102105140686,-2.16,-11.01,1.61,11.33
16.861196041107178,-0.31,-11.96,1.26,12.03
16.87142300605774,1.1,-12.67,0.54,12.72
16.88162398338318,1.72,-12.62,-0.3,12.74
16.891950130462646,1.69,-11.83,-0.86,11.98
16.922173976898193,1.16,-10.61,-0.71,10.69
16.923730850219727,0.53,-9.42,-0.04,9.43
16.924774169921875,0.25,-8.46,0.53,8.48
16.93160915374756,0.81,-7.94,0.77,8.01
16.941590070724487,2.27,-8.06,0.72,8.4
16.951661109924316,4.03,-8.6,0.36,9.5
16.96175503730774,5.76,-9.34,-0.05,10.97
16.972100973129272,7.32,-10.21,-0.37,12.56
16.98227310180664,8.48,-10.86,-0.6,13.79
16.99225091934204,8.82,-10.8,-0.62,13.95
17.026216983795166,8.18,-9.78,-0.26,12.75
17.02779507637024,7.02,-8.18,0.5,10.79
17.028768062591553,6.03,-6.62,1.31,9.04
17.049911975860596,5.28,-5.33,1.68,7.68
17.050965070724487,4.88,-4.39,1.66,6.77
17.061524868011475,4.88,-3.64,1.52,6.27
17.062960147857666,5.09,-3.02,1.39,6.07
17.077835083007812,5.43,-2.32,1.27,6.03
17.08271884918213,5.56,-1.38,1.14,5.84
17.094799995422363,5.51,-0.24,1.1,5.62
17.123190879821777,5.48,0.81,0.92,5.61
17.124652862548828,5.62,1.42,0.76,5.84
17.12565803527832,5.7,1.91,0.77,6.06
17.13286304473877,5.61,2.25,0.73,6.08
17.144136905670166,5.4,2.49,0.83,6.0
17.152979850769043,5.1,2.85,1.0,5.92
17.163249015808105,4.76,3.3,1.02,5.88
17.173583030700684,4.54,3.67,0.94,5.91
17.183414936065674,4.38,3.87,1.06,5.94
17.193581104278564,4.19,4.09,1.4,6.02
17.223875045776367,4.07,4.3,1.85,6.2
17.225491046905518,3.92,4.63,2.35,6.5
17.226463079452515,3.89,4.97,2.72,6.87
17.23338508605957,3.89,5.27,2.97,7.19
17.243299961090088,3.9,5.59,3.16,7.51
17.253353118896484,3.95,6.01,3.29,7.9
17.263566970825195,4.01,6.45,3.37,8.3
17.273868083953857,4.11,6.89,3.37,8.7
17.28411293029785,4.33,7.39,3.31,9.18
17.29416298866272,4.7,7.81,3.15,9.64
17.327248096466064,5.17,8.18,2.9,10.1
17.328801155090332,5.61,8.58,2.62,10.58
17.32985210418701,6.11,8.97,2.29,11.09
17.347003936767578,6.68,9.22,1.94,11.54
17.348050117492676,7.13,9.36,1.56,11.86
17.36211109161377,7.6,9.4,1.18,12.14
17.3648419380188,7.88,9.44,0.74,12.31
17.377874851226807,7.93,9.54,0.29,12.4
17.38493299484253,7.92,9.55,-0.07,12.4
17.39462184906006,7.91,9.44,-0.31,12.31
17.42931890487671,7.87,9.25,-0.47,12.15
17.43091917037964,7.83,8.96,-0.45,11.9
17.431917190551758,7.92,8.4,-0.14,11.54
17.446998119354248,8.49,7.47,0.52,11.32
17.448068141937256,9.46,6.4,1.34,11.49
17.461853981018066,10.35,5.56,2.11,11.93
17.464904069900513,10.97,5.09,2.65,12.38
17.478032112121582,11.1,4.98,2.77,12.47
17.48543119430542,10.57,4.85,2.73,11.94
17.49522304534912,9.83,4.5,3.01,11.22
17.530927181243896,9.3,3.86,3.49,10.65
17.532499074935913,8.91,2.97,3.76,10.11
17.533488988876343,8.61,2.06,3.88,9.66
17.546409130096436,8.44,1.31,4.15,9.49
17.547471046447754,8.42,0.66,4.43,9.53
17.561815977096558,8.54,-0.08,4.48,9.64
17.56551218032837,8.68,-0.9,4.28,9.71
17.57710599899292,8.76,-1.74,3.98,9.77
17.585751056671143,8.68,-2.53,3.73,9.78
17.596299171447754,8.37,-3.17,3.44,9.58
17.626487016677856,7.66,-3.64,3.12,9.03
17.62800908088684,6.77,-3.97,2.92,8.37
17.628981113433838,5.98,-4.38,2.76,7.9
17.646906852722168,5.26,-4.86,2.68,7.64
17.64799404144287,4.37,-5.11,2.55,7.19
17.661406993865967,3.55,-5.61,2.25,7.0
17.666152954101562,2.92,-6.13,2.17,7.12
17.678181171417236,2.17,-6.16,1.89,6.79
17.68640398979187,1.23,-5.76,0.66,5.92
17.696948051452637,0.59,-5.86,-0.41,5.9
17.728803157806396,0.41,-6.35,0.25,6.36
17.73029613494873,0.3,-6.37,1.2,6.48
17.731260061264038,0.09,-6.43,0.97,6.5
17.74694299697876,-0.07,-6.61,0.54,6.63
17.74798011779785,-0.08,-6.83,0.65,6.86
17.762161016464233,-0.06,-7.16,0.94,7.22
17.76670503616333,-0.16,-7.41,1.13,7.49
17.778208017349243,-0.35,-7.6,1.12,7.69
17.7869770526886,-0.59,-7.88,1.07,7.97
17.797046184539795,-0.83,-8.2,1.03,8.3
17.831790924072266,-0.99,-8.53,1.03,8.64
17.8332200050354,-1.08,-8.85,1.03,8.97
17.834110021591187,-1.13,-9.19,0.99,9.31
17.846928119659424,-1.15,-9.52,0.89,9.63
17.848047971725464,-1.3,-9.82,0.75,9.93
17.86168909072876,-1.77,-9.98,0.62,10.15
17.86743402481079,-2.46,-9.87,0.54,10.18
17.877767086029053,-2.97,-9.86,0.58,10.31
17.887521982192993,-3.28,-10.08,0.57,10.61
17.89774203300476,-3.38,-10.45,0.48,10.99
17.929739952087402,-3.34,-10.91,0.29,11.41
17.931304931640625,-3.23,-11.28,0.13,11.73
17.932337999343872,-3.15,-11.53,0.04,11.95
17.94784116744995,-3.1,-11.68,0.02,12.08
17.948868989944458,-3.05,-11.71,0.04,12.1
17.961881160736084,-3.2,-11.68,0.14,12.11
17.967939853668213,-3.44,-11.58,0.4,12.08
17.978296041488647,-3.35,-11.28,1.01,11.81
17.98827600479126,-2.52,-11.09,1.69,11.49
17.998342037200928,-1.34,-11.24,2.03,11.5
18.032987117767334,-0.4,-11.43,1.93,11.59
18.034543991088867,0.18,-11.39,1.72,11.52
18.03554391860962,0.23,-10.85,1.6,10.96
18.046719074249268,-0.22,-9.8,1.57,9.92
18.048083066940308,-0.65,-8.59,1.71,8.78
18.064481019973755,-0.45,-7.74,2.01,8.0
18.068588972091675,1.0,-7.54,2.3,7.94
18.078420162200928,3.33,-7.93,2.26,8.89
18.0887930393219,5.69,-8.55,1.92,10.44
18.09900999069214,7.65,-9.14,1.67,12.03
18.129844188690186,9.03,-9.62,1.6,13.29
18.13139295578003,9.73,-9.75,1.63,13.87
18.132368087768555,9.35,-9.06,1.87,13.15
18.14665198326111,8.12,-7.58,2.45,11.37
18.14884614944458,6.98,-6.13,3.24,9.83
18.16167402267456,6.47,-5.22,3.92,9.19
18.16950798034668,6.33,-4.68,4.25,8.94
18.17953395843506,6.33,-4.22,4.21,8.69
18.189600944519043,6.47,-3.63,4.05,8.45
18.19979190826416,6.75,-2.68,3.86,8.22
18.22995090484619,7.13,-1.47,3.57,8.1
18.23149299621582,7.62,-0.11,3.01,8.19
18.232485055923462,7.77,1.3,2.36,8.22
18.24720287322998,7.76,2.47,1.72,8.32
18.249393939971924,7.72,3.16,0.99,8.4
18.26172113418579,7.72,3.64,0.2,8.53
18.26965093612671,7.38,4.06,-0.5,8.43
18.279959201812744,6.53,4.5,-1.0,7.99
18.29006004333496,5.6,4.95,-1.27,7.58
18.300103187561035,4.78,5.19,-1.39,7.19
18.33291506767273,3.98,5.32,-1.25,6.76
18.334476947784424,3.35,5.48,-0.94,6.49
18.335448026657104,2.66,5.67,-0.54,6.28
18.347084045410156,2.08,5.87,-0.17,6.22
18.350010871887207,1.77,6.04,0.16,6.29
18.36200189590454,1.66,6.17,0.45,6.4
18.370310068130493,1.63,6.37,0.68,6.61
18.380594968795776,1.69,6.62,0.83,6.88
18.390543937683105,1.86,6.89,0.84,7.18
18.40086007118225,2.01,7.18,0.67,7.48
18.43229603767395,2.08,7.52,0.43,7.81
18.433887004852295,2.27,7.93,0.1,8.24
18.434846878051758,2.64,8.31,-0.34,8.72
18.447623014450073,3.28,8.53,-0.77,9.17
18.450528144836426,3.94,8.68,-1.08,9.59
18.462239980697632,4.85,8.81,-1.31,10.14
18.47083806991577,5.83,8.89,-1.52,10.73
18.481038093566895,6.8,8.96,-1.82,11.39
18.491100072860718,7.76,9.04,-2.25,12.12
18.50139093399048,8.77,9.17,-2.69,12.97
18.531385898590088,9.91,9.4,-3.07,13.99
18.533010005950928,11.01,9.57,-3.3,14.95
18.53401207923889,11.79,9.53,-3.41,15.53
18.546975135803223,11.98,9.27,-3.5,15.54
18.551114082336426,11.53,8.94,-3.51,15.0
18.56156301498413,10.58,8.66,-3.18,14.03
18.571476936340332,9.61,7.92,-2.51,12.7
18.582088947296143,9.21,6.5,-1.46,11.36
18.59184217453003,9.37,5.01,0.0,10.62
18.602001190185547,9.91,4.32,1.4,10.9
18.63184905052185,10.21,4.52,2.39,11.41
18.633424997329712,10.0,5.18,2.69,11.57
18.63438105583191,9.52,5.53,2.6,11.31
18.647024154663086,9.57,4.75,2.88,11.06
18.651767015457153,10.03,3.05,3.47,11.04
18.662023067474365,10.35,1.19,3.79,11.08
18.672686100006104,10.35,-0.12,3.65,10.97
18.682607173919678,10.21,-0.74,3.27,10.74
18.692682027816772,10.2,-1.28,3.09,10.73
18.702934980392456,10.35,-1.97,3.25,11.02
18.732820987701416,10.43,-2.83,3.48,11.35
18.734436988830566,10.15,-3.57,3.69,11.37
18.735415935516357,9.75,-4.21,3.93,11.32
18.747403144836426,9.1,-4.74,3.98,11.0
18.75239610671997,8.12,-5.13,3.78,10.32
18.762659072875977,6.94,-5.41,3.39,9.42
18.772687911987305,5.64,-5.61,3.05,8.51
18.78321099281311,4.61,-5.98,2.75,8.03
18.79291796684265,3.74,-6.45,2.4,7.83
18.80320692062378,2.94,-6.92,1.8,7.73
18.833550930023193,2.22,-7.47,1.16,7.87
18.835047006607056,1.48,-7.93,0.73,8.09
18.836027145385742,0.74,-8.31,0.48,8.35
18.849375009536743,-0.42,-8.86,-0.11,8.87
18.853004932403564,-2.0,-9.05,0.62,9.28
18.863192081451416,-3.28,-8.53,0.65,9.16
18.873255968093872,-3.03,-8.64,0.17,9.15
18.883620977401733,-2.2,-8.92,0.3,9.19
18.893807888031006,-1.75,-8.98,0.08,9.14
18.903778076171875,-1.56,-8.76,0.03,8.89
18.949996948242188,-1.31,-8.7,-0.06,8.79
18.95167899131775,-0.97,-9.04,-0.67,9.11
18.9526948928833,-1.45,-9.26,-1.24,9.45
18.954554080963135,-2.43,-9.23,-1.47,9.65
18.956237077713013,-2.82,-9.15,-1.5,9.69
18.963742971420288,-2.66,-9.18,-1.26,9.64
18.9736750125885,-2.39,-9.3,-1.12,9.66
18.984019994735718,-2.21,-9.46,-1.23,9.79
18.99373507499695,-2.22,-9.51,-1.3,9.85
19.003875970840454,-2.34,-9.55,-1.17,9.9
19.024008989334106,-2.38,-9.73,-0.97,10.06
19.02580499649048,-2.38,-9.96,-0.92,10.28
19.034115076065063,-2.41,-10.12,-1.0,10.45
19.044474124908447,-2.48,-10.24,-1.16,10.59
19.054101943969727,-2.56,-10.29,-1.17,10.66
19.064313888549805,-2.66,-10.19,-1.02,10.58
19.074331045150757,-2.81,-10.01,-0.94,10.43
19.0850191116333,-2.95,-9.91,-1.03,10.39
19.095162868499756,-2.84,-10.0,-1.19,10.46
19.104843139648438,-2.54,-10.07,-1.21,10.45
19.133863925933838,-2.21,-10.08,-1.21,10.39
19.135133981704712,-1.92,-9.96,-1.07,10.19
19.136147022247314,-1.71,-9.7,-0.8,9.88
19.147222995758057,-1.18,-9.49,-0.43,9.57
19.154776096343994,0.51,-9.77,0.0,9.78
19.165099143981934,2.82,-10.54,-0.14,10.91
19.17514705657959,4.37,-11.19,-0.81,12.04
19.185353994369507,4.54,-11.14,-1.27,12.09
19.19539999961853,3.86,-10.38,-0.99,11.11
19.205605030059814,3.03,-9.37,0.05,9.84
19.238481998443604,3.15,-8.88,1.09,9.48
19.24000120162964,4.4,-8.93,1.56,10.07
19.24098014831543,5.83,-9.01,1.76,10.87
19.247321128845215,7.67,-9.04,1.98,12.01
19.25538396835327,9.93,-9.22,2.24,13.73
19.265860080718994,12.26,-9.24,2.56,15.56
19.276538848876953,13.52,-8.51,2.96,16.24
19.28634214401245,13.54,-6.78,3.32,15.5
19.296238899230957,12.88,-4.5,3.34,14.04
19.306490898132324,12.18,-2.38,3.2,12.81
19.338330030441284,11.74,-0.85,2.99,12.14
19.339863061904907,11.47,0.16,2.6,11.76
19.340900897979736,10.89,1.2,1.86,11.11
19.34743309020996,10.03,2.26,1.07,10.33
19.355964183807373,8.98,3.31,0.36,9.57
19.366291046142578,7.89,4.32,-0.34,9.0
19.376304149627686,6.89,5.04,-0.85,8.57
19.386946201324463,5.97,5.4,-1.07,8.12
19.396785974502563,5.07,5.65,-0.97,7.65
19.40676999092102,4.28,5.8,-0.76,7.24
19.439527988433838,3.55,5.8,-0.47,6.81
19.44095206260681,2.91,5.7,-0.04,6.39
19.44196105003357,2.4,5.65,0.31,6.14
19.447265148162842,2.06,5.64,0.58,6.03
19.4565749168396,1.79,5.7,0.83,6.03
19.46686100959778,1.56,5.88,0.93,6.15
19.476850986480713,1.3,6.11,1.01,6.32
19.487195014953613,1.05,6.42,1.17,6.6
19.49726915359497,0.85,6.82,1.32,6.99
19.50738286972046,0.8,7.19,1.38,7.36
19.540502071380615,1.05,7.49,1.4,7.69
19.54203701019287,1.52,7.77,1.3,8.02
19.54305410385132,2.02,8.03,1.11,8.35
19.54767894744873,2.52,8.31,0.89,8.72
19.562795162200928,3.08,8.69,0.62,9.24
19.56739616394043,3.58,9.15,0.25,9.82
19.578830003738403,4.12,9.59,-0.1,10.43
19.587712049484253,4.78,10.0,-0.39,11.09
19.598006010055542,5.55,10.37,-0.68,11.78
19.607985973358154,6.44,10.63,-1.0,12.46
19.637104034423828,7.22,10.71,-1.36,12.98
19.638673067092896,7.85,10.61,-1.64,13.29
19.639522075653076,8.36,10.47,-1.77,13.51
19.647852897644043,8.71,10.27,-1.71,13.57
19.657737016677856,8.88,9.98,-1.46,13.43
19.66807198524475,8.98,9.56,-1.01,13.15
19.67804503440857,9.1,8.95,-0.53,12.77
19.688390970230103,9.02,8.31,-0.11,12.26
19.698503971099854,8.63,7.75,0.3,11.6
19.708827018737793,7.9,7.18,0.69,10.69
19.7408549785614,6.9,6.58,1.13,9.6
19.742532968521118,6.29,5.65,1.86,8.65
19.7435200214386,6.51,4.16,2.75,8.2
19.748450994491577,7.44,2.94,3.47,8.71
19.762271881103516,8.33,2.51,3.89,9.53
19.76856517791748,9.09,2.56,3.97,10.24
19.778508186340332,10.08,2.3,4.02,11.09
19.788968086242676,11.32,1.41,4.05,12.1
19.799799919128418,12.57,0.23,3.87,13.15
19.809813976287842,13.36,-0.75,3.37,13.79
19.839812994003296,13.54,-1.44,2.68,13.87
19.841371059417725,13.24,-2.11,2.08,13.56
19.842385053634644,12.7,-2.7,1.66,13.08
19.84947109222412,12.02,-3.13,1.35,12.49
19.85983419418335,11.28,-3.48,1.21,11.86
19.86960220336914,10.56,-3.98,1.13,11.34
19.87963604927063,9.8,-4.69,1.0,10.91
19.89008092880249,8.76,-5.4,0.91,10.33
19.89970898628235,7.41,-5.97,0.96,9.56
19.910014152526855,5.73,-6.35,1.16,8.63
19.941614151000977,3.97,-6.64,1.51,7.88
19.943262100219727,2.46,-6.91,1.85,7.56
19.94424605369568,1.23,-7.23,2.21,7.65
19.949604034423828,0.22,-7.54,2.51,7.94
19.95958185195923,-0.63,-7.77,2.75,8.26
19.969905853271484,-1.31,-7.94,2.88,8.54
19.980130195617676,-1.75,-8.08,2.82,8.73
19.990610122680664,-1.98,-8.25,2.68,8.89
20.000272035598755,-2.22,-8.22,2.55,8.88
20.010513067245483,-2.36,-8.16,2.41,8.82
20.04731798171997,-2.31,-8.21,2.23,8.81
20.048870086669922,-2.13,-8.36,2.0,8.85
20.049898147583008,-2.02,-8.39,1.75,8.8
20.064884185791016,-1.94,-8.4,1.53,8.75
20.06592106819153,-1.88,-8.38,1.43,8.7
20.079330921173096,-1.85,-8.42,1.45,8.74
20.08089590072632,-1.83,-8.56,1.58,8.89
20.098067045211792,-1.89,-8.8,1.79,9.17
20.100904941558838,-2.13,-8.96,2.05,9.43
20.113383054733276,-2.46,-9.11,2.54,9.77
20.141252040863037,-2.9,-9.34,3.5,10.38
20.142870903015137,-2.85,-9.37,4.48,10.76
20.143855094909668,-2.06,-9.24,4.89,10.65
20.15077304840088,-1.07,-9.29,4.44,10.35
20.16257619857788,0.08,-9.46,3.44,10.06
20.170886993408203,1.26,-9.69,2.38,10.05
20.181047916412354,1.84,-9.87,1.23,10.11
20.19128704071045,1.37,-9.87,0.21,9.96
20.201421976089478,0.49,-9.78,-0.19,9.79
20.211556911468506,-0.46,-9.68,-0.1,9.69
20.24228596687317,-1.56,-9.67,0.09,9.79
20.243773937225342,-2.58,-9.79,0.19,10.12
20.244760036468506,-3.31,-9.89,0.21,10.43
20.25175404548645,-3.68,-9.88,0.16,10.54
20.26135492324829,-3.6,-9.91,0.11,10.54
20.271431922912598,-2.82,-10.17,0.17,10.55
20.28161597251892,-1.56,-10.86,0.08,10.97
20.29167604446411,-0.69,-11.59,-0.16,11.61
20.302319049835205,-0.88,-11.53,0.04,11.56
20.312203884124756,-1.35,-10.69,0.8,10.8
20.342557907104492,-1.64,-9.74,1.53,9.99
20.34413504600525,-1.19,-9.44,1.88,9.69
20.34507417678833,0.11,-10.09,1.59,10.21
20.352295875549316,1.43,-10.91,0.96,11.04
20.361842155456543,2.56,-11.25,0.6,11.55
20.372009992599487,3.59,-11.3,0.57,11.87
20.382313013076782,4.42,-11.46,0.6,12.29
20.392725944519043,5.07,-11.37,0.91,12.48
20.40262007713318,5.4,-10.6,1.52,11.99
20.41271209716797,5.57,-9.52,2.26,11.25
20.446567058563232,6.33,-8.6,2.67,11.0
20.448133945465088,7.41,-7.97,2.77,11.22
20.44910502433777,8.57,-7.39,2.82,11.66
20.466559886932373,9.65,-6.58,2.97,12.05
20.467634201049805,10.49,-5.51,3.14,12.25
20.48006296157837,10.85,-4.22,3.26,12.08
20.483590126037598,10.72,-2.56,3.24,11.48
20.496458053588867,10.31,-0.82,3.11,10.8
20.503154039382935,9.78,0.65,2.88,10.21
20.51367998123169,9.22,1.74,2.68,9.75
20.54461097717285,8.73,2.61,2.48,9.44
20.546152114868164,8.17,3.27,2.28,9.09
20.54712200164795,7.76,3.77,2.3,8.92
20.566712856292725,7.51,4.36,2.61,9.06
20.56824016571045,7.22,4.78,3.24,9.24
20.579330921173096,6.93,5.04,4.01,9.46
20.58379602432251,6.41,5.4,4.59,9.55
20.59621500968933,5.66,5.83,4.81,9.44
20.603955030441284,4.92,6.2,4.79,9.25
20.614046096801758,4.26,6.45,4.63,9.01
20.648355960845947,3.75,6.64,4.54,8.87
20.649767875671387,3.65,6.76,4.65,8.98
20.650719165802002,3.74,6.79,4.73,9.08
20.665325164794922,3.83,6.97,4.7,9.23
20.66633415222168,3.97,7.22,4.42,9.35
20.679798126220703,4.11,7.63,4.14,9.6
20.684303045272827,4.38,8.22,3.74,10.03
20.696372032165527,4.97,8.8,3.04,10.55
20.704524993896484,5.89,9.34,2.14,11.24
20.71462917327881,6.97,9.8,1.21,12.08
20.748701095581055,7.92,10.23,0.33,12.94
20.75023603439331,8.8,10.71,-0.52,13.87
20.75120997428894,9.6,11.21,-1.43,14.82
20.76503610610962,10.14,11.68,-2.32,15.64
20.766127109527588,10.2,12.02,-3.06,16.05
20.77980399131775,9.83,12.19,-3.42,16.02
20.78493309020996,9.23,12.05,-3.31,15.53
20.798304080963135,8.36,11.58,-2.86,14.56
20.80515718460083,7.08,11.03,-1.91,13.24
20.815388202667236,5.93,10.78,-0.62,12.31
20.846662998199463,5.39,10.02,-0.61,11.39
20.848180055618286,5.84,8.78,0.88,10.58
20.849206924438477,6.85,7.37,2.29,10.31
20.865530967712402,7.97,6.68,3.44,10.95
20.866554021835327,8.79,6.82,4.24,11.9
20.880313873291016,9.68,6.9,4.57,12.73
20.901337146759033,11.18,5.75,4.17,13.24
20.90300989151001,12.65,4.26,4.44,14.06
20.905499935150146,13.52,3.31,4.5,14.62
20.915946006774902,13.98,3.3,2.97,14.66
20.936760902404785,14.37,3.23,1.37,14.79
20.938331127166748,14.67,2.12,0.8,14.84
20.94575595855713,14.8,0.65,1.32,14.87
20.955778121948242,14.75,-0.57,2.3,14.93
20.96630096435547,14.31,-1.59,3.03,14.71
20.9758780002594,13.64,-2.46,3.15,14.21
20.9863018989563,13.08,-3.43,2.79,13.8
20.996076107025146,12.49,-4.44,2.47,13.48
21.006314039230347,11.57,-5.3,2.5,12.96
21.016618013381958,10.33,-5.91,2.7,12.2
21.043220043182373,8.89,-6.32,2.76,11.25
21.044790983200073,7.61,-6.74,2.84,10.55
21.046113967895508,6.63,-7.23,3.04,10.26
21.05621099472046,5.86,-7.66,3.14,10.14
21.06622314453125,5.32,-8.27,3.15,10.32
21.07656502723694,4.8,-8.85,3.14,10.54
21.08654499053955,4.29,-9.29,3.17,10.71
21.096781015396118,3.9,-9.66,3.24,10.9
21.10694694519043,3.52,-10.11,3.17,11.16
21.117645025253296,3.08,-10.47,2.95,11.3
21.150358200073242,2.72,-10.78,2.74,11.45
21.15193796157837,2.39,-11.13,2.41,11.63
21.15289306640625,1.86,-11.44,2.01,11.76
21.164950847625732,1.25,-11.69,1.62,11.86
21.166854858398438,0.62,-11.83,1.39,11.92
21.17955493927002,-0.03,-11.93,1.34,12.0
21.187138080596924,-0.56,-12.03,1.29,12.11
21.19758892059326,-1.02,-12.16,1.17,12.25
21.207350969314575,-1.53,-12.08,1.06,12.22
21.217630863189697,-2.01,-11.93,1.06,12.14
21.248411178588867,-2.43,-11.73,1.18,12.03
21.25011897087097,-2.82,-11.52,1.39,11.94
21.25112009048462,-3.15,-11.36,1.53,11.88
21.26517915725708,-3.37,-11.29,1.56,11.88
21.267423152923584,-3.56,-11.22,1.54,11.87
21.28007698059082,-3.63,-11.23,1.52,11.89
21.287764072418213,-3.54,-11.41,1.47,12.03
21.298086166381836,-3.37,-11.71,1.43,12.26
21.308027982711792,-3.27,-11.95,1.47,12.47
21.31822919845581,-3.33,-11.94,1.61,12.49
21.348644018173218,-3.41,-11.91,1.75,12.51
21.35025405883789,-3.53,-11.93,1.74,12.56
21.351227045059204,-3.79,-11.89,1.75,12.6
21.36509609222412,-4.05,-11.76,1.82,12.57
21.36800503730774,-3.99,-11.65,2.0,12.47
21.38015103340149,-3.02,-11.88,2.23,12.45
21.388653993606567,-1.52,-12.49,2.01,12.74
21.398630142211914,-0.42,-12.97,1.37,13.04
21.40856099128723,0.13,-13.0,0.88,13.03
21.4188129901886,0.27,-12.77,0.77,12.79
21.448737144470215,0.08,-12.24,0.94,12.27
21.450265884399414,-0.28,-11.66,1.04,11.7
21.45124101638794,0.05,-11.37,0.96,11.41
21.46508002281189,1.09,-11.55,0.76,11.62
21.46889019012451,2.55,-12.15,0.37,12.42
21.479863166809082,4.26,-12.85,0.0,13.53
21.48914384841919,5.95,-13.48,-0.11,14.73
21.49949312210083,7.31,-13.65,-0.05,15.48
21.509507179260254,8.44,-13.22,0.02,15.68
21.519431114196777,9.32,-12.4,0.18,15.51
21.549713134765625,10.03,-11.07,0.45,14.94
21.551272869110107,10.58,-9.4,0.61,14.16
21.552250862121582,11.03,-7.87,0.72,13.56
21.565268993377686,11.4,-6.7,0.89,13.25
21.569494009017944,11.65,-5.83,1.01,13.06
21.580008029937744,11.69,-4.96,1.13,12.74
21.59041118621826,11.39,-3.77,1.06,12.04
21.599853992462158,10.7,-2.49,0.73,11.01
21.61012101173401,9.99,-1.46,0.5,10.1
21.62009596824646,9.56,-0.65,0.52,9.59
21.65004014968872,9.27,-0.13,0.65,9.29
21.651578903198242,9.04,0.29,0.87,9.08
21.652565956115723,8.92,0.57,1.2,9.01
21.665185928344727,8.87,0.72,2.03,9.12
21.669857025146484,8.72,1.18,3.15,9.34
21.680126190185547,8.4,1.93,3.96,9.48
21.69010591506958,7.99,2.65,4.39,9.49
21.700337886810303,7.42,3.28,4.72,9.38
21.71061611175537,6.82,3.92,4.98,9.31
21.720649003982544,6.23,4.59,5.03,9.22
21.751349925994873,5.85,5.24,4.83,9.22
21.752727031707764,5.85,5.69,4.54,9.33
21.7535560131073,5.97,6.09,4.26,9.53
21.765300989151,6.05,6.6,3.98,9.79
21.77064609527588,6.1,7.19,3.68,10.12
21.780733108520508,5.97,7.91,3.32,10.45
21.790864944458008,5.86,8.67,2.98,10.88
21.80095386505127,5.99,9.32,2.58,11.37
21.81119704246521,6.32,9.84,2.14,11.88
21.821534156799316,6.66,10.25,1.71,12.34
21.855173110961914,6.89,10.61,1.28,12.71
21.856791019439697,7.13,10.92,0.9,13.07
21.857763051986694,7.31,11.25,0.47,13.42
21.865324020385742,7.46,11.6,-0.01,13.79
21.870986938476562,7.67,11.89,-0.41,14.15
21.881139993667603,7.87,12.04,-0.67,14.39
21.891232013702393,8.13,12.01,-0.77,14.52
21.90165400505066,8.44,11.85,-0.7,14.56
21.911699056625366,8.57,11.57,-0.4,14.4
21.92184019088745,8.49,11.29,0.2,14.12
21.955184936523438,8.26,10.99,0.89,13.77
21.956729888916016,8.03,10.46,1.69,13.29
21.957703113555908,7.72,9.56,2.63,12.56
21.965063095092773,7.76,8.3,3.77,11.97
21.971662044525146,8.69,7.13,4.94,12.27
21.98179006576538,10.2,6.43,5.84,13.39
21.9919490814209,11.83,6.04,6.27,14.68
22.00219202041626,13.18,5.84,6.18,15.68
22.012712955474854,13.98,5.55,5.75,16.1
22.022686004638672,14.14,4.84,5.48,15.91
22.05306911468506,13.97,3.88,5.33,15.44
22.054617881774902,13.32,2.95,4.82,14.46
22.0555739402771,12.41,2.05,4.03,13.2
22.065582036972046,11.33,1.25,3.44,11.9
22.072515964508057,10.43,0.45,3.28,10.94
22.082408905029297,9.95,-0.58,3.35,10.51
22.092609882354736,9.81,-1.8,3.42,10.54
22.102789878845215,9.83,-2.98,3.48,10.84
22.113229990005493,9.75,-3.98,3.55,11.11
22.122983932495117,9.43,-4.71,3.58,11.13
22.15443992614746,8.83,-5.23,3.51,10.84
22.156005859375,8.01,-5.54,3.41,10.31
22.156972885131836,7.08,-5.73,3.25,9.67
22.165417194366455,6.23,-6.01,3.14,9.2
22.172775983810425,5.47,-6.38,2.88,8.88
22.18297290802002,4.69,-6.77,2.47,8.59
22.193197011947632,3.96,-7.07,2.02,8.35
22.203455924987793,3.33,-7.25,1.67,8.15
22.213361024856567,2.79,-7.4,1.35,8.02
22.223922967910767,2.31,-7.51,1.13,7.93
22.254122018814087,1.96,-7.59,1.12,7.91
22.255656003952026,1.78,-7.72,1.12,8.0
22.256505966186523,1.72,-7.91,1.1,8.16
22.265424966812134,1.7,-8.02,1.08,8.26
22.27375888824463,1.75,-8.13,1.0,8.37
22.283639907836914,1.7,-8.31,0.98,8.53
22.293694972991943,1.61,-8.54,1.02,8.75
22.30407190322876,1.53,-8.81,1.08,9.0
22.314085006713867,1.39,-9.07,1.11,9.24
22.32452917098999,1.18,-9.24,1.07,9.37
22.354788064956665,0.8,-9.51,1.12,9.6
22.356329917907715,0.26,-9.71,1.3,9.8
22.3572678565979,-0.33,-9.82,1.47,9.93
22.365394115447998,-0.9,-9.93,1.56,10.09
22.374080181121826,-1.45,-10.13,1.51,10.34
22.384317874908447,-2.02,-10.32,1.48,10.61
22.39450693130493,-2.54,-10.57,1.52,10.97
22.404661178588867,-3.18,-10.91,1.54,11.46
22.41484785079956,-3.95,-11.12,1.59,11.9
22.424808979034424,-4.54,-11.15,1.73,12.16
22.457969188690186,-4.87,-11.17,1.81,12.31
22.459507942199707,-4.97,-11.22,1.66,12.38
22.46053695678711,-4.83,-11.35,1.36,12.4
22.465764045715332,-4.61,-11.5,0.99,12.42
22.47460699081421,-4.72,-11.48,0.72,12.43
22.48498010635376,-5.01,-11.27,0.86,12.36
22.49494218826294,-4.95,-10.94,1.14,12.06
22.505266189575195,-4.14,-10.96,1.36,11.79
22.515480041503906,-2.44,-11.64,1.28,11.96
22.525424003601074,-0.99,-11.95,0.88,12.02
22.55770707130432,0.07,-11.54,0.42,11.54
22.559272050857544,1.11,-10.93,0.05,10.98
22.560268878936768,2.04,-10.39,-0.18,10.58
22.56572198867798,2.55,-9.88,-0.28,10.2
22.57522702217102,3.09,-9.45,0.04,9.94
22.58583116531372,4.13,-9.63,0.21,10.48
22.595561981201172,5.5,-10.24,0.05,11.62
22.605865001678467,6.66,-11.0,-0.11,12.85
22.616036891937256,7.47,-11.6,-0.17,13.79
22.62608814239502,7.92,-11.67,-0.06,14.1
22.65632200241089,7.92,-11.16,0.19,13.68
22.65769600868225,7.67,-10.28,0.56,12.83
22.65866994857788,7.17,-9.0,1.02,11.55
22.66594099998474,6.47,-7.6,1.41,10.08
22.675829887390137,5.98,-6.57,1.6,9.02
22.685984134674072,5.65,-5.9,1.58,8.32
22.696186065673828,5.38,-5.3,1.4,7.68
22.70639419555664,5.05,-4.61,1.24,6.94
22.716465950012207,4.66,-3.79,1.25,6.13
22.726670026779175,4.3,-2.92,1.28,5.35
22.759754180908203,4.14,-2.1,1.14,4.78
22.761290073394775,4.2,-1.49,0.93,4.55
22.762269020080566,4.28,-0.9,0.75,4.43
22.766505002975464,4.27,-0.27,0.44,4.3
22.776411056518555,4.41,0.36,0.0,4.42
22.786759853363037,4.84,0.93,-0.24,4.93
22.796717166900635,5.01,1.59,-0.69,5.3
22.80696392059326,5.4,1.29,-1.09,5.65
22.817219018936157,5.96,0.95,0.32,6.04
22.827291011810303,5.77,1.71,2.63,6.56
22.86265993118286,5.04,2.93,3.46,6.77
22.864209175109863,4.48,4.12,2.91,6.74
22.865148067474365,4.56,4.65,2.43,6.95
22.882996082305908,4.9,4.71,2.15,7.12
22.88401985168457,5.11,4.92,1.79,7.31
22.89773201942444,5.08,5.41,1.58,7.58
22.89930009841919,5.06,6.05,1.58,8.04
22.913778066635132,5.18,6.7,1.51,8.6
22.917541027069092,5.51,7.28,1.38,9.23
22.930770874023438,5.98,7.82,1.21,9.91
22.954180002212524,6.48,8.37,1.04,10.63
22.95581293106079,6.92,8.86,0.89,11.27
22.957566022872925,7.53,9.22,0.75,11.92
22.96771812438965,8.05,9.45,0.64,12.43
22.9776349067688,8.4,9.66,0.54,12.81
22.987962007522583,8.7,9.85,0.44,13.14
22.99818706512451,9.02,10.02,0.37,13.48
23.008213996887207,9.26,10.13,0.3,13.72
23.018415927886963,9.47,10.14,0.34,13.87
23.028467178344727,9.52,10.07,0.42,13.86
23.06334900856018,9.48,9.92,0.65,13.73
23.06490206718445,9.56,9.7,1.0,13.65
23.06587505340576,9.96,9.28,1.41,13.68
23.083247184753418,10.71,8.6,1.84,13.85
23.084251880645752,11.57,7.94,2.27,14.21
23.097676992416382,12.36,7.72,2.47,14.78
23.099438190460205,12.67,7.82,2.18,15.04
23.114281177520752,11.69,7.64,1.77,14.07
23.118993997573853,10.33,7.04,2.02,12.66
23.131075859069824,9.07,6.13,2.53,11.23
23.16395092010498,7.54,5.21,2.89,9.6
23.165489196777344,6.24,4.55,3.27,8.38
23.166481018066406,5.6,3.93,3.65,7.75
23.183019161224365,5.64,3.1,3.78,7.46
23.184054851531982,6.04,2.13,3.77,7.43
23.198336124420166,6.6,1.13,3.81,7.7
23.19989585876465,7.04,0.18,3.79,7.99
23.21414613723755,7.14,-0.59,3.6,8.01
23.21947717666626,6.94,-1.17,3.4,7.81
23.231118202209473,6.41,-1.61,3.23,7.35
23.260722160339355,5.73,-1.98,3.02,6.77
23.262218952178955,5.06,-2.34,2.69,6.18
23.263198852539062,4.43,-2.65,2.4,5.69
23.269545078277588,3.81,-2.87,2.13,5.22
23.279422998428345,3.22,-3.01,1.76,4.74
23.289520978927612,2.72,-3.18,1.45,4.42
23.29964017868042,2.34,-3.43,1.27,4.34
23.31039810180664,1.99,-3.69,1.2,4.36
23.320210933685303,1.63,-3.93,1.12,4.39
23.33035707473755,1.25,-4.09,1.1,4.41
23.364521026611328,0.96,-4.33,1.14,4.57
23.366082191467285,0.81,-4.67,1.22,4.89
23.367058992385864,0.71,-5.06,1.31,5.27
23.383069038391113,0.64,-5.42,1.39,5.63
23.384116172790527,0.6,-5.8,1.46,6.01
23.39762306213379,0.47,-6.0,1.53,6.2
23.40037703514099,0.29,-6.14,1.61,6.35
23.41432285308838,0.26,-6.37,1.59,6.57
23.420698165893555,0.33,-6.72,1.43,6.87
23.431312084197998,0.3,-7.2,1.14,7.29
23.46312713623047,0.06,-7.72,0.97,7.78
23.464689016342163,-0.38,-8.17,0.88,8.22
23.4656879901886,-0.98,-8.59,0.8,8.68
23.484702110290527,-1.56,-8.93,0.8,9.1
23.48560619354248,-2.09,-9.15,0.73,9.41
23.497849941253662,-2.59,-9.32,0.75,9.7
23.50097417831421,-3.02,-9.48,0.83,9.98
23.514064073562622,-3.24,-9.71,0.8,10.26
23.52125597000122,-3.33,-9.93,0.65,10.49
23.531446933746338,-3.38,-10.19,0.48,10.74
23.565156936645508,-3.36,-10.47,0.43,11.0
23.566729068756104,-3.39,-10.59,0.48,11.12
23.567709922790527,-3.52,-10.55,0.63,11.13
23.58278799057007,-3.58,-10.4,0.88,11.03
23.58382797241211,-3.46,-10.28,1.06,10.89
23.59792184829712,-3.15,-10.15,1.02,10.67
23.60166907310486,-2.36,-10.11,0.95,10.42
23.61408305168152,-1.08,-10.28,0.79,10.36
23.621901988983154,-0.32,-10.34,0.28,10.34
23.63215684890747,-0.36,-9.79,-0.17,9.79
23.663017988204956,-0.73,-8.71,0.08,8.74
23.664587020874023,-0.92,-7.72,0.64,7.8
23.665555000305176,-0.74,-7.13,0.85,7.21
23.683183193206787,0.0,-7.12,0.83,7.16
23.68419313430786,1.37,-7.75,0.6,7.89
23.69777488708496,2.89,-8.7,0.3,9.17
23.70218300819397,4.34,-9.64,0.12,10.57
23.714534044265747,5.44,-10.19,0.0,11.55
23.72245502471924,6.0,-10.23,-0.03,11.85
23.73273515701294,6.02,-9.74,0.03,11.45
23.76325297355652,5.75,-8.67,0.22,10.4
23.764832019805908,5.31,-7.3,0.51,9.04
23.765806198120117,4.84,-6.07,0.77,7.8
23.783440113067627,4.56,-5.27,0.91,7.02
23.784500122070312,4.43,-4.85,0.85,6.62
23.79791808128357,4.27,-4.56,0.72,6.28
23.80278706550598,3.88,-4.07,0.81,5.68
23.81443500518799,3.36,-3.31,1.04,4.82
23.82318902015686,2.85,-2.5,1.17,3.96
23.833683013916016,2.49,-1.77,1.27,3.3
23.867146015167236,2.4,-1.15,1.44,3.02
23.868694067001343,2.47,-0.44,1.58,2.96
23.86971616744995,2.61,0.29,1.34,2.94
23.88330602645874,2.61,0.96,0.93,2.93
23.884191036224365,2.72,1.27,0.8,3.1
23.89841103553772,2.82,1.69,1.11,3.46
23.90346598625183,2.81,2.05,1.02,3.62
23.914578914642334,2.8,2.24,1.05,3.73
23.923809051513672,2.68,2.55,1.66,4.05
23.933979988098145,2.4,3.06,1.95,4.35
23.96780014038086,2.04,3.62,1.74,4.5
23.969353199005127,1.84,4.01,1.7,4.72
23.970364093780518,1.84,4.22,1.82,4.95
23.983391046524048,1.79,4.44,1.85,5.13
23.984467029571533,1.71,4.73,1.93,5.38
23.997951984405518,1.61,5.08,2.1,5.72
24.004268169403076,1.53,5.41,2.35,6.09
24.014719009399414,1.58,5.7,2.66,6.48
24.02439785003662,1.67,5.97,2.87,6.83
24.034615993499756,1.82,6.26,2.95,7.15
24.067975997924805,2.07,6.53,3.0,7.47
24.069517135620117,2.47,6.75,3.03,7.8
24.07051420211792,3.02,6.98,3.04,8.19
24.0834321975708,3.53,7.3,3.02,8.65
24.0844988822937,4.06,7.63,2.97,9.13
24.098031997680664,4.75,7.86,2.85,9.61
24.104640007019043,5.6,8.02,2.66,10.13
24.114763021469116,6.59,8.28,2.32,10.83
24.124988079071045,7.69,8.63,1.85,11.7
24.13512396812439,8.73,8.93,1.29,12.55
24.167574882507324,9.5,9.26,0.69,13.28
24.169133186340332,9.87,9.52,0.16,13.71
24.170170068740845,9.79,9.65,-0.21,13.74
24.183209896087646,9.62,9.51,-0.15,13.52
24.184908866882324,9.8,8.76,0.44,13.15
24.19771385192871,10.57,7.52,1.32,13.03
24.205265998840332,11.65,6.59,2.09,13.54
24.215508937835693,12.22,6.18,2.72,13.96
24.225472927093506,12.07,6.13,3.09,13.88
24.235690116882324,11.1,6.19,3.35,13.14
24.266380071640015,9.96,5.88,3.85,12.19
24.267799854278564,8.95,5.14,4.47,11.24
24.2688250541687,7.85,4.35,4.67,10.11
24.28324007987976,6.94,3.51,4.54,9.0
24.285523891448975,6.43,2.87,4.43,8.31
24.298002004623413,6.38,2.3,4.29,8.02
24.305867195129395,6.76,1.63,4.18,8.11
24.316072940826416,7.29,0.87,4.06,8.38
24.32612705230713,7.66,0.16,3.9,8.59
24.336278915405273,7.79,-0.43,3.73,8.64
24.369075059890747,7.7,-0.93,3.6,8.55
24.37057113647461,7.3,-1.38,3.46,8.19
24.3715660572052,6.61,-1.66,3.26,7.55
24.38321018218994,5.85,-1.88,2.97,6.82
24.386096000671387,5.19,-2.27,2.55,6.21
24.397799968719482,4.58,-2.73,2.17,5.75
24.406440019607544,3.94,-3.06,1.84,5.31
24.416599988937378,3.25,-3.31,1.58,4.9
24.42670488357544,2.55,-3.49,1.4,4.54
24.436870098114014,1.89,-3.66,1.16,4.27
24.466835975646973,1.34,-3.94,0.99,4.27
24.468185901641846,1.0,-4.32,0.98,4.54
24.46917700767517,0.75,-4.68,1.01,4.84
24.483314990997314,0.52,-5.0,1.03,5.13
24.486759185791016,0.36,-5.3,1.09,5.42
24.498013019561768,0.31,-5.64,1.21,5.77
24.507285118103027,0.32,-6.03,1.3,6.17
24.51734209060669,0.35,-6.45,1.36,6.6
24.52737307548523,0.28,-6.83,1.42,6.98
24.537504196166992,0.21,-7.1,1.53,7.26
24.570108890533447,0.12,-7.3,1.58,7.46
24.57165288925171,0.05,-7.53,1.59,7.69
24.572651863098145,0.03,-7.71,1.49,7.85
24.5833101272583,-0.02,-7.97,1.28,8.07
24.587318897247314,-0.22,-8.24,1.16,8.32
24.598116874694824,-0.56,-8.47,1.08,8.55
24.607805013656616,-0.97,-8.66,1.13,8.78
24.617887020111084,-1.4,-8.86,1.23,9.05
24.62812304496765,-1.84,-9.04,1.3,9.31
24.638039112091064,-2.31,-9.21,1.31,9.58
24.670831203460693,-2.72,-9.36,1.26,9.82
24.67237091064453,-2.91,-9.58,1.28,10.09
24.67332100868225,-3.02,-9.9,1.26,10.42
24.683317184448242,-3.04,-10.33,1.22,10.83
24.687912940979004,-3.05,-10.69,1.18,11.17
24.69831418991089,-3.06,-10.92,1.16,11.39
24.708444118499756,-3.02,-10.93,1.17,11.39
24.718740940093994,-2.65,-10.91,1.3,11.3
24.72862195968628,-1.83,-11.17,1.23,11.38
24.73873996734619,-1.05,-11.68,0.93,11.76
24.773133993148804,-0.64,-11.88,0.69,11.91
24.774723052978516,-0.51,-11.55,0.65,11.57
24.77570605278015,-0.7,-10.94,0.8,10.99
24.783475875854492,-0.97,-10.33,1.08,10.43
24.788508892059326,-0.97,-9.76,1.52,9.92
24.798891067504883,-0.34,-9.36,1.8,9.53
24.80899715423584,0.98,-9.31,1.81,9.53
24.819282054901123,2.55,-9.66,1.64,10.12
24.829784870147705,4.12,-10.12,1.32,11.0
24.839540004730225,5.72,-10.41,1.19,11.93
24.871499061584473,7.08,-10.41,1.18,12.64
24.872939109802246,7.85,-9.92,0.98,12.68
24.873908042907715,7.55,-8.83,0.77,11.64
24.883352041244507,6.68,-7.39,0.89,10.0
24.889090061187744,6.04,-6.26,1.29,8.79
24.900470972061157,5.74,-5.58,1.49,8.14
24.9107608795166,5.13,-5.05,1.4,7.33
24.920775890350342,4.55,-4.39,1.04,6.4
24.93109107017517,3.94,-3.55,0.8,5.36
24.941073894500732,3.36,-2.58,0.72,4.29
24.96883201599121,3.09,-1.67,0.65,3.57
24.970428943634033,3.26,-0.8,0.58,3.4
24.97138214111328,3.46,0.07,0.39,3.48
24.983949184417725,3.39,1.07,-0.3,3.56
24.990818977355957,3.63,1.95,-1.29,4.31
25.001054048538208,4.06,2.51,-1.94,5.15
25.011295080184937,3.62,2.79,-1.81,4.91
25.021947860717773,3.79,2.86,-2.61,5.41
25.0317120552063,3.88,2.22,-1.51,4.71
25.0418381690979,3.13,2.4,0.97,4.06
25.07118797302246,2.65,3.26,1.93,4.62
25.072803020477295,2.41,4.05,1.76,5.03
25.07377290725708,2.22,4.3,1.38,5.03
25.083827018737793,2.45,4.22,1.05,4.99
25.091413021087646,2.86,4.1,0.69,5.04
25.10170602798462,3.13,4.04,0.64,5.15
25.11173915863037,3.2,4.26,0.9,5.4
25.122009992599487,3.15,4.72,1.11,5.78
25.1325900554657,3.26,5.17,1.31,6.25
25.142242908477783,3.59,5.52,1.52,6.75
25.171823978424072,4.03,5.85,1.61,7.28
25.173386096954346,4.43,6.23,1.5,7.79
25.17435908317566,4.67,6.59,1.41,8.19
25.185441970825195,4.9,6.89,1.42,8.57
25.191992044448853,5.23,7.13,1.47,8.96
25.2021541595459,5.63,7.32,1.51,9.35
25.212332010269165,6.03,7.53,1.49,9.76
25.222477912902832,6.47,7.69,1.37,10.14
25.232746124267578,6.98,7.77,1.25,10.51
25.242823123931885,7.5,7.82,1.15,10.89
25.27189016342163,7.85,8.05,1.03,11.29
25.27345895767212,8.07,8.45,0.85,11.71
25.27442693710327,8.21,8.86,0.6,12.09
25.283638954162598,8.33,9.16,0.28,12.38
25.29261016845703,8.35,9.34,-0.07,12.52
25.30293297767639,8.29,9.27,-0.33,12.44
25.31290912628174,8.38,8.81,-0.24,12.16
25.3233540058136,8.83,8.04,0.21,11.94
25.33330798149109,9.53,7.5,0.75,12.15
25.343427181243896,10.1,7.17,1.18,12.44
25.372024059295654,10.57,6.99,1.48,12.75
25.373584985733032,10.53,6.89,1.73,12.7
25.374561071395874,10.03,6.46,1.97,12.09
25.383745193481445,9.9,5.63,2.28,11.61
25.39352297782898,9.9,4.71,2.37,11.21
25.403493881225586,9.79,3.96,2.06,10.75
25.41352105140686,9.66,3.43,1.71,10.39
25.423780918121338,9.58,2.81,1.62,10.11
25.434010982513428,9.59,2.03,1.71,9.95
25.444002151489258,9.58,1.1,1.92,9.83
25.478003978729248,9.43,0.12,2.04,9.64
25.479542016983032,9.3,-0.86,2.12,9.57
25.480550050735474,9.08,-1.86,2.12,9.5
25.483975887298584,8.46,-2.67,2.02,9.09
25.494214057922363,7.54,-3.16,1.95,8.4
25.504008054733276,6.59,-3.47,1.97,7.7
25.514271020889282,5.54,-3.71,2.06,6.97
25.524451971054077,4.45,-3.95,2.11,6.31
25.534812927246094,3.45,-4.17,2.13,5.81
25.544821977615356,2.56,-4.28,2.04,5.38
25.578309059143066,1.84,-4.44,1.84,5.14
25.579875946044922,1.3,-4.63,1.76,5.12
25.58085298538208,0.89,-4.8,1.75,5.18
25.58458709716797,0.51,-4.96,1.73,5.27
25.59488606452942,0.26,-5.15,1.73,5.43
25.604827880859375,0.09,-5.37,1.73,5.64
25.614941120147705,0.02,-5.57,1.8,5.85
25.625148057937622,-0.05,-5.76,1.83,6.04
25.635179042816162,-0.07,-5.97,1.83,6.24
25.64570188522339,-0.07,-6.24,1.83,6.5
25.679429054260254,-0.08,-6.49,1.86,6.75
25.68095111846924,-0.16,-6.67,1.88,6.93
25.681900024414062,-0.2,-6.85,1.84,7.09
25.702478885650635,-0.26,-7.06,1.78,7.28
25.70395517349243,-0.34,-7.26,1.76,7.47
25.715409994125366,-0.42,-7.47,1.78,7.69
25.71703004837036,-0.56,-7.75,1.84,7.98
25.732637882232666,-0.71,-8.14,1.88,8.38
25.73595404624939,-0.9,-8.43,1.93,8.69
25.749228954315186,-1.18,-8.57,1.91,8.85
25.77628803253174,-1.55,-8.78,1.86,9.1
25.777843952178955,-1.91,-9.04,1.77,9.4
25.77887797355652,-2.27,-9.24,1.56,9.64
25.78585195541382,-2.57,-9.57,1.39,10.0
25.795762062072754,-2.75,-9.97,1.34,10.42
25.80594301223755,-2.91,-10.3,1.22,10.77
25.81614398956299,-3.11,-10.56,1.01,11.05
25.826313972473145,-3.37,-10.74,0.8,11.28
25.836444854736328,-3.6,-10.81,0.66,11.41
25.846519947052002,-3.76,-10.79,0.66,11.44
25.879662036895752,-3.96,-10.61,0.73,11.34
25.8812198638916,-3.66,-10.45,0.86,11.1
25.88222098350525,-2.38,-10.75,1.09,11.06
25.901095867156982,-0.96,-11.45,0.97,11.53
25.902140140533447,-0.53,-11.56,0.44,11.58
25.915143966674805,-0.75,-10.88,0.13,10.9
25.91667103767395,-0.94,-9.92,0.39,9.97
25.931931018829346,-0.94,-9.14,0.83,9.22
25.93703007698059,-0.21,-8.82,1.04,8.88
25.94920587539673,1.25,-9.15,0.91,9.27
25.973987102508545,2.77,-9.89,0.53,10.28
25.975561141967773,4.34,-10.64,0.37,11.49
25.976896047592163,5.76,-11.26,0.53,12.65
25.98697519302368,6.49,-11.37,0.69,13.11
25.996939182281494,6.5,-10.91,0.78,12.72
26.007474899291992,5.92,-9.71,1.0,11.41
26.017215967178345,5.28,-8.23,1.44,9.88
26.02754306793213,5.08,-6.93,1.82,8.78
26.037687063217163,5.36,-6.18,1.78,8.37
26.047793865203857,5.68,-5.69,1.51,8.18
26.082081079483032,5.7,-5.14,1.26,7.77
26.0836501121521,5.39,-4.38,1.07,7.02
26.084651947021484,4.91,-3.5,1.01,6.11
26.10114097595215,4.44,-2.5,1.08,5.2
26.10215997695923,4.1,-1.53,1.14,4.52
26.115597009658813,3.94,-0.63,1.16,4.15
26.117882013320923,4.0,0.19,0.84,4.09
26.13241720199585,4.09,1.15,-0.01,4.24
26.13821005821228,4.39,1.75,-0.8,4.79
26.149267196655273,4.64,2.44,-1.16,5.36
26.182392120361328,4.82,2.54,-1.72,5.71
26.183988094329834,5.43,2.04,-1.39,5.96
26.184988975524902,5.37,2.51,0.47,5.94
26.20410394668579,4.59,3.49,1.98,6.09
26.205621004104614,3.9,4.55,2.15,6.36
26.216054916381836,3.5,5.22,1.57,6.47
26.218502044677734,3.46,5.36,1.08,6.47
26.232213973999023,3.62,5.35,0.72,6.49
26.238959074020386,3.68,5.48,0.45,6.61
26.24921703338623,3.59,5.73,0.46,6.77
26.28327512741089,3.54,6.01,0.69,7.0
26.284809112548828,3.79,6.26,0.86,7.36
26.285762071609497,4.3,6.47,1.0,7.83
26.288716077804565,4.68,6.74,1.15,8.28
26.29879903793335,4.96,7.06,1.23,8.71
26.308809995651245,5.22,7.35,1.33,9.11
26.31904697418213,5.44,7.73,1.46,9.56
26.329060077667236,5.66,8.11,1.55,10.01
26.339417934417725,6.0,8.39,1.51,10.42
26.34968400001526,6.36,8.64,1.34,10.81
26.38085699081421,6.69,8.94,1.17,11.22
26.382440090179443,7.16,9.19,0.99,11.69
26.383414030075073,7.57,9.32,0.76,12.03
26.401862144470215,7.81,9.44,0.66,12.26
26.40332794189453,7.96,9.65,0.67,12.52
26.415592193603516,8.07,9.82,0.61,12.72
26.41999912261963,8.12,9.83,0.43,12.75
26.432329177856445,8.02,9.7,0.23,12.58
26.440135955810547,7.63,9.49,0.14,12.17
26.45018196105957,7.05,9.19,0.28,11.58
26.48474907875061,6.83,8.41,0.98,10.87
26.48631501197815,7.3,7.4,2.15,10.61
26.487308979034424,8.2,6.95,3.29,11.24
26.50129508972168,9.06,6.88,4.07,12.08
26.502392053604126,9.71,6.81,4.31,12.61
26.516168117523193,10.37,6.49,4.12,12.9
26.520893096923828,10.99,5.59,3.82,12.9
26.532482147216797,11.66,4.49,3.58,12.99
26.541095972061157,12.05,3.77,3.0,12.97
26.551140069961548,12.15,3.33,2.17,12.78
26.58445119857788,12.17,2.74,1.55,12.57
26.58592200279236,12.27,1.88,1.25,12.47
26.58688998222351,12.53,0.74,1.16,12.6
26.60166597366333,12.68,-0.52,1.23,12.75
26.602699995040894,12.51,-1.7,1.33,12.69
26.61625909805298,11.76,-2.6,1.38,12.12
26.62093496322632,10.45,-3.1,1.51,11.0
26.632585048675537,9.1,-3.37,1.76,9.86
26.64119601249695,7.58,-3.49,1.91,8.56
26.65162992477417,6.03,-3.58,1.99,7.28
26.682919025421143,4.77,-3.83,2.09,6.46
26.684505939483643,3.84,-4.21,2.14,6.08
26.68548607826233,3.05,-4.68,2.1,5.96
26.70128607749939,2.31,-5.11,2.03,5.96
26.702182054519653,1.77,-5.53,2.02,6.14
26.71595597267151,1.39,-5.99,2.07,6.48
26.72175693511963,0.98,-6.42,2.13,6.83
26.732527017593384,0.59,-6.81,2.15,7.16
26.742013931274414,0.26,-7.1,2.19,7.43
26.752588033676147,0.09,-7.37,2.26,7.7
26.784236907958984,0.06,-7.64,2.22,7.95
26.78581190109253,0.1,-7.91,2.08,8.17
26.78679609298706,0.12,-8.18,1.92,8.4
26.79171085357666,0.05,-8.3,1.8,8.49
26.801916122436523,-0.04,-8.35,1.65,8.51
26.81181001663208,-0.11,-8.47,1.47,8.59
26.822221994400024,-0.2,-8.68,1.32,8.78
26.832458019256592,-0.34,-9.03,1.19,9.11
26.842494010925293,-0.53,-9.43,1.07,9.5
26.852580070495605,-0.8,-9.74,0.99,9.82
26.886131048202515,-1.17,-10.13,0.94,10.24
26.887646198272705,-1.62,-10.27,0.95,10.44
26.888695001602173,-2.26,-10.2,0.88,10.48
26.9016330242157,-2.78,-10.2,0.72,10.59
26.902602195739746,-3.18,-10.41,0.58,10.9
26.915945053100586,-3.48,-10.65,0.56,11.21
26.922761917114258,-3.73,-10.87,0.49,11.5
26.932941913604736,-3.93,-11.0,0.29,11.68
26.943120002746582,-4.02,-11.07,0.0,11.77
26.953260898590088,-4.06,-11.18,-0.31,11.89
26.986155033111572,-4.07,-11.29,-0.48,12.01
26.987718105316162,-4.22,-11.25,-0.58,12.02
26.988697052001953,-4.4,-10.97,-0.55,11.83
27.001275062561035,-4.53,-10.5,-0.29,11.43
27.0030300617218,-4.3,-9.99,0.27,10.87
27.015640020370483,-3.17,-9.76,0.82,10.29
27.023324012756348,-1.06,-10.24,0.88,10.33
27.03357696533203,0.76,-10.96,0.4,10.99
27.0437331199646,1.92,-11.07,-0.11,11.23
27.053797006607056,2.77,-10.62,-0.22,10.97
27.084150075912476,3.19,-10.18,-0.03,10.66
27.085691928863525,3.46,-9.96,0.2,10.54
27.086634159088135,3.95,-9.97,0.32,10.72
27.101147174835205,4.59,-10.22,0.28,11.2
27.10361909866333,5.18,-10.54,0.08,11.74
27.116148948669434,5.71,-10.91,0.11,12.31
27.12389087677002,6.26,-11.24,0.25,12.86
27.13424801826477,6.46,-11.09,0.44,12.84
27.14430809020996,6.65,-10.49,0.73,12.44
27.154478073120117,6.75,-9.49,1.21,11.7
27.187471866607666,6.94,-8.28,1.6,10.92
27.189023971557617,7.13,-7.02,1.72,10.15
27.190030097961426,7.01,-5.82,1.74,9.27
27.201443195343018,6.78,-4.82,1.77,8.5
27.204222202301025,6.56,-3.87,1.92,7.85
27.21866798400879,6.21,-2.76,1.93,7.06
27.225004196166992,5.83,-1.68,1.66,6.29
27.234843015670776,5.46,-0.62,1.33,5.65
27.244790077209473,5.24,0.36,0.95,5.33
27.255009174346924,5.15,1.07,0.56,5.28
27.287003993988037,5.01,1.65,0.1,5.27
27.288546085357666,5.02,2.05,-0.15,5.42
27.289520025253296,5.1,2.31,-0.35,5.6
27.301398992538452,5.18,2.3,0.08,5.66
27.304844856262207,4.99,2.65,1.27,5.79
27.316399097442627,4.52,3.37,2.17,6.04
27.325480937957764,4.15,4.07,2.2,6.21
27.33541703224182,4.0,4.49,2.02,6.34
27.345453023910522,3.9,4.78,2.05,6.5
27.355614185333252,3.81,5.18,2.03,6.74
27.387232065200806,3.75,5.57,2.02,7.01
27.388792991638184,3.83,5.8,2.11,7.26
27.389774084091187,4.0,6.02,2.26,7.57
27.4013991355896,4.18,6.36,2.4,7.98
27.405447006225586,4.41,6.76,2.52,8.45
27.41603398323059,4.71,7.17,2.55,8.94
27.425920963287354,5.02,7.54,2.58,9.41
27.43600106239319,5.43,7.85,2.66,9.9
27.446309089660645,6.01,8.18,2.73,10.51
27.45623016357422,6.42,8.53,2.69,11.0
27.489026069641113,6.7,8.93,2.61,11.46
27.49061393737793,7.06,9.34,2.55,11.98
27.49156904220581,7.5,9.7,2.38,12.49
27.501422882080078,7.91,9.99,2.13,12.91
27.506046056747437,8.23,10.31,1.92,13.33
27.516551971435547,8.31,10.53,1.69,13.52
27.52652907371521,8.26,10.68,1.45,13.57
27.536624908447266,8.04,10.77,1.32,13.5
27.546939849853516,7.7,10.81,1.4,13.34
27.55677890777588,7.26,10.67,1.63,13.0
27.58927297592163,6.77,10.32,1.87,12.48
27.590862035751343,6.12,9.98,2.11,11.89
27.591847896575928,5.28,9.7,2.49,11.32
27.60161018371582,4.76,9.06,3.17,10.71
27.60668396949768,5.19,7.87,4.21,10.32
27.616928100585938,6.74,6.79,5.34,10.95
27.62716293334961,8.22,6.1,6.0,11.86
27.637187957763672,9.44,5.66,5.91,12.49
27.64732789993286,10.82,5.07,5.26,13.05
27.657445907592773,12.31,3.94,4.76,13.77
27.691040992736816,13.87,2.46,4.62,14.82
27.692548036575317,14.93,1.23,4.12,15.53
27.693564891815186,14.96,0.59,2.98,15.26
27.701690196990967,14.2,0.35,1.82,14.32
27.707391023635864,13.35,-0.01,1.16,13.4
27.717988967895508,12.74,-0.7,1.02,12.79
27.72844696044922,12.12,-1.52,1.2,12.27
27.738002061843872,11.28,-2.23,1.52,11.59
27.748056888580322,10.32,-2.91,1.69,10.85
27.75826597213745,9.5,-3.55,1.75,10.29
27.78972601890564,8.8,-4.19,1.95,9.93
27.79127788543701,7.87,-4.67,2.28,9.43
27.79232096672058,6.79,-4.91,2.54,8.75
27.801562070846558,5.62,-5.02,2.63,7.98
27.80814003944397,4.52,-5.12,2.64,7.32
27.817864894866943,3.64,-5.39,2.6,7.0
27.82813000679016,2.9,-5.78,2.64,6.98
27.838407039642334,2.39,-6.2,2.73,7.18
27.848464012145996,2.01,-6.59,2.7,7.39
27.858892917633057,1.78,-7.06,2.54,7.71
27.890660047531128,1.55,-7.45,2.4,7.97
27.89221715927124,1.17,-7.68,2.34,8.11
27.89321208000183,0.69,-7.77,2.31,8.13
27.90186905860901,0.12,-7.85,2.14,8.13
27.908801078796387,-0.49,-7.99,2.32,8.33
27.91862201690674,-0.81,-7.84,2.55,8.28
27.928691864013672,-0.67,-8.16,1.82,8.38
27.9390070438385,-0.62,-8.65,1.67,8.83
27.96358585357666,-0.93,-8.9,1.34,9.04
27.965167999267578,-1.2,-9.14,1.35,9.31
27.98167896270752,-1.34,-9.46,1.4,9.65
27.983108043670654,-1.42,-9.79,1.22,9.96
28.001669883728027,-1.43,-10.23,1.0,10.37
28.002763986587524,-1.35,-10.65,1.02,10.78
28.01630210876465,-1.47,-10.91,1.19,11.07
28.01914405822754,-1.89,-10.91,1.26,11.14
28.03193187713623,-2.42,-10.78,1.26,11.11
28.03919219970703,-2.84,-10.7,1.21,11.13
28.049316883087158,-3.18,-10.63,1.04,11.14
28.05939292907715,-3.39,-10.67,0.83,11.22
28.083476066589355,-3.55,-10.81,0.59,11.39
28.08510398864746,-3.7,-11.02,0.37,11.63
28.089529037475586,-3.81,-11.3,0.29,11.92
28.100951194763184,-3.84,-11.66,0.31,12.27
28.109606981277466,-3.62,-12.04,0.58,12.58
28.11991310119629,-2.78,-12.61,1.02,12.95
28.130254983901978,-1.54,-13.45,1.16,13.58
28.140170097351074,-0.65,-14.08,1.0,14.13
28.150350093841553,-0.24,-14.1,0.9,14.13
28.160372018814087,-0.54,-13.4,1.07,13.45
28.196425914764404,-0.94,-12.48,1.6,12.61
28.197986125946045,-0.73,-11.67,2.22,11.9
28.198961973190308,0.34,-11.3,2.4,11.55
28.201830863952637,1.89,-11.35,1.87,11.65
28.210224151611328,3.34,-11.5,1.3,12.04
28.220624923706055,4.76,-11.66,1.1,12.64
28.230257987976074,5.92,-11.6,0.97,13.05
28.24101495742798,6.79,-11.21,0.73,13.12
28.250869035720825,7.47,-10.54,0.45,12.92
28.260929107666016,7.89,-9.62,0.14,12.44
28.292343139648438,7.88,-8.49,-0.14,11.58
28.2939350605011,7.58,-7.32,-0.31,10.54
28.29490303993225,7.09,-6.23,-0.45,9.44
28.30222511291504,6.44,-5.32,-0.63,8.37
28.31072998046875,5.64,-4.5,-0.74,7.25
28.32097816467285,4.75,-3.72,-0.65,6.06
28.330993175506592,3.98,-2.9,-0.46,4.94
28.341387033462524,3.48,-2.17,-0.27,4.11
28.351426124572754,3.43,-1.62,-0.14,3.79
28.361549854278564,3.62,-1.03,-0.13,3.76
28.391720056533813,3.8,-0.38,-0.27,3.82
28.39325499534607,4.01,0.18,-0.76,4.08
28.394232988357544,4.44,0.54,-0.99,4.58
28.40196704864502,4.44,1.01,-0.91,4.64
28.411623001098633,4.41,1.25,-1.15,4.72
28.4220130443573,4.84,0.5,-0.32,4.87
28.432654857635498,4.83,0.81,1.92,5.26
28.442252159118652,4.33,1.89,3.6,5.93
28.452594995498657,3.67,2.96,3.86,6.09
28.462229013442993,3.23,3.61,3.39,5.91
28.495176076889038,3.12,3.8,3.05,5.78
28.496861934661865,3.17,3.95,2.87,5.82
28.49787402153015,3.25,4.31,2.73,6.04
28.502199172973633,3.28,4.79,2.73,6.41
28.51698398590088,3.35,5.27,2.76,6.82
28.522320985794067,3.74,5.72,2.79,7.38
28.53339910507202,4.38,6.01,2.82,7.95
28.54265594482422,5.2,6.16,2.82,8.54
28.55275297164917,6.06,6.21,2.81,9.12
28.56286907196045,6.81,6.32,2.78,9.69
28.595365047454834,7.48,6.54,2.84,10.33
28.5969500541687,8.03,6.86,2.97,10.97
28.59794807434082,8.44,7.23,3.02,11.51
28.602696895599365,8.79,7.67,3.11,12.07
28.616660118103027,9.1,8.24,3.23,12.69
28.62295699119568,9.4,8.94,3.25,13.37
28.633395195007324,9.77,9.51,3.25,14.01
28.643155097961426,10.2,9.87,3.29,14.56
28.653386116027832,10.53,10.16,3.37,15.01
28.66350507736206,10.53,10.42,3.42,15.2
28.699235916137695,10.21,10.61,3.4,15.11
28.700800895690918,9.6,10.6,3.33,14.68
28.701796054840088,8.93,10.28,3.43,14.04
28.719039916992188,8.87,9.48,3.84,13.53
28.72006893157959,9.49,8.53,4.2,13.43
28.733659029006958,10.23,7.9,4.28,13.61
28.735295057296753,10.68,7.72,4.3,13.86
28.750144004821777,10.71,7.8,4.47,13.98
28.753893852233887,10.04,7.67,4.61,13.44
28.767215967178345,9.27,7.19,4.69,12.63
28.79226589202881,8.94,6.46,4.7,11.98
28.79383611679077,8.72,5.42,4.53,11.22
28.794833183288574,8.56,4.29,4.38,10.52
28.803900003433228,8.7,3.32,4.43,10.31
28.813843965530396,9.2,2.53,4.59,10.58
28.8239688873291,9.84,1.72,4.55,10.97
28.83418297767639,10.29,0.89,4.21,11.15
28.84436798095703,10.4,0.06,3.93,11.11
28.854494094848633,10.19,-0.74,3.83,10.91
28.864657878875732,9.75,-1.59,3.81,10.58
28.894548892974854,8.87,-2.32,3.68,9.87
28.896116018295288,7.79,-2.81,3.5,8.99
28.89712905883789,6.78,-3.23,3.34,8.21
28.904481887817383,5.88,-3.7,3.06,7.59
28.91437816619873,5.09,-4.13,2.67,7.07
28.924731016159058,4.41,-4.46,2.26,6.66
28.935026168823242,3.83,-4.7,1.87,6.34
28.945080041885376,3.34,-4.9,1.57,6.13
28.955523014068604,2.85,-5.14,1.34,6.02
28.965250968933105,2.46,-5.45,1.32,6.12
28.996625900268555,2.2,-5.78,1.54,6.37
28.998213052749634,1.86,-6.01,1.86,6.56
28.999167919158936,1.54,-6.15,2.18,6.7
29.00552201271057,1.38,-6.34,2.45,6.93
29.015002012252808,1.32,-6.57,2.64,7.2
29.025257110595703,1.31,-6.83,2.68,7.45
29.035344123840332,1.3,-7.11,2.62,7.68
29.045603036880493,1.18,-7.41,2.56,7.92
29.056171894073486,0.94,-7.62,2.5,8.07
29.065929889678955,0.65,-7.74,2.33,8.1
29.09920310974121,0.35,-7.91,2.06,8.18
29.100723028182983,-0.03,-8.05,1.97,8.28
29.10170602798462,-0.37,-8.35,2.21,8.64
29.120327949523926,-0.63,-8.71,2.61,9.11
29.121842861175537,-1.0,-9.1,2.81,9.57
29.133633136749268,-1.43,-9.46,2.84,9.98
29.136357069015503,-1.88,-9.73,2.87,10.31
29.15047001838684,-2.31,-10.09,3.0,10.77
29.15636110305786,-2.91,-10.24,3.1,11.08
29.16736102104187,-3.61,-10.16,3.11,11.22
29.199100017547607,-3.96,-10.21,3.06,11.37
29.20065402984619,-3.85,-10.52,2.89,11.56
29.20163106918335,-3.48,-11.01,2.56,11.82
29.219275951385498,-3.31,-11.32,2.12,11.98
29.22031307220459,-3.31,-11.52,1.73,12.11
29.234163999557495,-3.4,-11.52,1.44,12.09
29.236546993255615,-3.17,-11.62,1.42,12.12
29.252800941467285,-2.2,-12.01,1.43,12.29
29.257039070129395,-1.2,-12.61,1.09,12.71
29.267693996429443,-0.88,-12.73,0.54,12.77
29.297852039337158,-1.1,-11.97,0.23,12.02
29.299407958984375,-1.73,-10.93,0.35,11.07
29.300375938415527,-1.97,-10.27,0.69,10.47
29.319528102874756,-1.42,-10.15,1.07,10.3
29.320574045181274,-0.26,-10.4,1.2,10.47
29.333585023880005,1.21,-10.83,1.06,10.94
29.337162971496582,2.96,-11.29,0.73,11.69
29.35042715072632,4.7,-11.78,0.35,12.68
29.357472896575928,6.1,-12.2,0.03,13.64
29.367877960205078,6.93,-12.2,-0.21,14.03
29.398128032684326,6.99,-11.51,-0.25,13.46
29.399646997451782,6.52,-10.23,-0.07,12.13
29.4006450176239,5.8,-8.78,0.26,10.52
29.419479846954346,5.24,-7.62,0.56,9.26
29.420485973358154,4.87,-6.81,0.56,8.39
29.433865070343018,4.52,-6.14,0.35,7.63
29.437779903411865,4.13,-5.46,0.24,6.85
29.450325965881348,3.89,-4.77,0.32,6.16
29.458193063735962,3.78,-4.02,0.43,5.53
29.46827507019043,3.75,-3.37,0.54,5.07
29.502174854278564,3.79,-2.75,0.64,4.72
29.503731966018677,3.82,-2.03,0.69,4.38
29.504700183868408,3.75,-1.13,0.46,3.94
29.51949119567871,3.94,-0.52,-0.22,3.98
29.520516872406006,4.47,-0.16,-0.24,4.47
29.534110069274902,4.54,0.54,0.07,4.57
29.538464069366455,4.45,1.05,-0.13,4.57
29.550498008728027,4.79,0.83,0.29,4.87
29.55876898765564,4.81,1.25,2.08,5.38
29.568880081176758,4.39,2.27,3.05,5.8
29.602745056152344,3.85,3.35,2.55,5.7
29.60425615310669,3.8,3.82,2.09,5.77
29.605241060256958,4.02,3.9,2.29,6.05
29.619417190551758,4.14,4.25,2.42,6.4
29.620403051376343,4.24,4.81,2.41,6.84
29.63431406021118,4.54,5.27,2.49,7.38
29.639057159423828,5.02,5.58,2.53,7.92
29.650786876678467,5.58,5.91,2.58,8.52
29.659263134002686,6.16,6.33,2.69,9.23
29.66947603225708,6.72,6.79,2.79,9.95
29.703178882598877,7.23,7.36,2.88,10.71
29.704735040664673,7.79,8.03,2.94,11.56
29.705708980560303,8.17,8.71,2.95,12.3
29.719531059265137,8.51,9.35,2.84,12.95
29.72057604789734,8.84,9.92,2.67,13.55
29.734352111816406,9.05,10.4,2.48,14.0
29.739657878875732,9.13,10.77,2.16,14.28
29.750772953033447,9.16,11.04,1.8,14.45
29.75984287261963,9.15,11.22,1.47,14.55
29.77010202407837,9.02,11.28,1.2,14.49
29.80002212524414,8.72,11.23,1.09,14.25
29.801587104797363,8.2,11.04,1.18,13.8
29.802544116973877,7.56,10.68,1.55,13.17
29.819610118865967,6.9,10.14,2.08,12.44
29.82072901725769,6.32,9.25,2.87,11.56
29.834351062774658,6.29,8.02,4.27,11.05
29.840310096740723,7.33,7.1,5.85,11.76
29.850502014160156,8.87,6.71,6.96,13.12
29.8606219291687,10.13,6.55,7.41,14.15
29.87074613571167,11.34,6.31,7.08,14.78
29.904083013534546,12.72,5.5,6.46,15.28
29.905631065368652,13.99,4.33,5.98,15.81
29.906649112701416,14.69,3.61,5.3,16.02
29.920037031173706,14.56,3.36,4.09,15.49
29.921112060546875,13.82,3.19,2.76,14.44
29.934973001480103,12.94,2.64,1.88,13.33
29.941593170166016,12.14,1.55,1.58,12.34
29.951138019561768,11.3,0.37,1.54,11.41
29.96112298965454,10.37,-0.67,1.57,10.5
29.971615076065063,9.38,-1.61,1.6,9.65
30.00175404548645,8.42,-2.4,1.68,8.91
30.003308057785034,7.61,-3.09,1.88,8.42
30.004252910614014,6.82,-3.65,2.14,8.02
30.019672870635986,5.98,-4.09,2.32,7.6
30.02163791656494,5.14,-4.41,2.47,7.2
30.034109115600586,4.27,-4.59,2.52,6.75
30.041429042816162,3.41,-4.67,2.53,6.31
30.05171799659729,2.66,-4.79,2.39,5.97
30.06181502342224,2.06,-4.98,2.17,5.8
30.071937084197998,1.62,-5.27,1.98,5.85
30.105052947998047,1.22,-5.61,1.83,6.02
30.106569051742554,0.86,-5.88,1.72,6.18
30.107537031173706,0.67,-6.23,1.72,6.49
30.119606018066406,0.54,-6.6,1.73,6.84
30.12169599533081,0.38,-6.93,1.72,7.15
30.133578062057495,0.37,-7.22,1.78,7.44
30.14198589324951,0.56,-7.58,1.84,7.82
30.152326107025146,0.82,-8.01,1.81,8.25
30.162443161010742,1.05,-8.43,1.6,8.64
30.172472953796387,1.13,-8.91,1.32,9.07
30.20544719696045,1.11,-9.41,1.15,9.54
30.206972122192383,0.91,-9.85,1.07,9.94
30.20792293548584,0.49,-10.14,1.03,10.2
30.219455003738403,-0.12,-10.31,1.05,10.36
30.22231101989746,-0.86,-10.31,1.23,10.41
30.233651161193848,-1.43,-10.12,1.49,10.32
30.242577075958252,-1.78,-10.05,1.52,10.31
30.25276803970337,-2.12,-10.0,1.36,10.31
30.26300811767578,-2.34,-10.0,1.18,10.33
30.27367401123047,-2.44,-10.19,0.99,10.52
30.30319905281067,-2.52,-10.35,0.69,10.67
30.30474305152893,-2.59,-10.57,0.33,10.88
30.305716037750244,-2.73,-10.81,0.03,11.14
30.319623947143555,-3.08,-11.01,-0.17,11.43
30.32291007041931,-3.52,-11.12,-0.26,11.66
30.334470987319946,-3.84,-11.22,-0.11,11.85
