time,ax,ay,az,atotal
0.007890939712524414,-0.1,-0.16,-2.79,2.79
0.015032052993774414,-0.09,0.42,-3.3,3.32
0.02485489845275879,0.12,0.52,-3.87,3.9
0.03503012657165527,0.1,0.59,-3.89,3.93
0.045134782791137695,0.02,0.53,-3.69,3.72
0.07333779335021973,-0.14,0.46,-3.56,3.59
0.07639098167419434,-0.17,0.4,-3.35,3.37
0.07806706428527832,-0.06,0.27,-3.15,3.16
0.08480596542358398,0.07,0.17,-2.98,2.98
0.09486699104309082,0.13,-0.03,-2.81,2.81
0.10482597351074219,0.17,-0.31,-2.76,2.78
0.11471009254455566,0.19,-0.45,-2.66,2.7
0.1253221035003662,0.09,-0.39,-2.36,2.39
0.13505005836486816,0.07,-0.16,-2.08,2.08
0.14511895179748535,0.06,0.11,-1.98,1.98
0.17690491676330566,-0.01,0.08,-1.72,1.72
0.17936396598815918,-0.02,0.04,-1.4,1.4
0.18105006217956543,0.13,0.09,-0.99,1.0
0.18448281288146973,0.14,0.12,-0.63,0.65
0.19458603858947754,0.01,0.14,-0.43,0.45
0.20464587211608887,-0.24,0.28,-0.18,0.41
0.2143409252166748,-0.51,0.43,-0.08,0.67
0.22450613975524902,-0.72,0.52,0.15,0.9
0.23507285118103027,-0.84,0.61,0.42,1.11
0.2446730136871338,-0.85,0.68,0.75,1.32
0.27413296699523926,-0.67,0.73,1.1,1.48
0.2766878604888916,-0.4,0.67,1.42,1.62
0.278317928314209,-0.14,0.59,1.68,1.78
0.28418803215026855,0.15,0.51,1.94,2.01
0.29434704780578613,0.4,0.39,2.34,2.4
0.30426907539367676,0.5,0.5,2.8,2.88
0.31442904472351074,0.56,0.81,3.08,3.23
0.32419800758361816,0.74,0.95,3.21,3.42
0.33446288108825684,1.16,0.82,3.39,3.67
0.3446071147918701,1.53,0.56,3.47,3.83
0.3753190040588379,1.62,0.46,3.5,3.88
0.37801289558410645,1.5,0.51,3.48,3.82
0.379626989364624,1.45,0.54,3.24,3.59
0.3839528560638428,1.61,0.48,3.03,3.46
0.3942389488220215,2.06,0.02,3.04,3.67
0.4043138027191162,1.72,-0.06,1.75,2.45
0.41417479515075684,1.81,-0.04,1.23,2.18
0.42424607276916504,2.06,-0.4,0.53,2.16
0.4344208240509033,2.23,-0.77,-0.44,2.39
0.4443349838256836,2.35,-1.02,-1.22,2.83
0.4758269786834717,2.47,-1.29,-2.07,3.47
0.47821497917175293,2.59,-1.61,-2.99,4.27
0.47986578941345215,2.66,-1.81,-3.76,4.94
0.48367810249328613,2.61,-2.01,-4.61,5.66
0.4938700199127197,2.32,-2.2,-5.35,6.23
0.5038869380950928,1.86,-2.33,-5.88,6.59
0.5144109725952148,1.06,-2.3,-6.22,6.71
0.523932933807373,0.19,-2.2,-6.31,6.68
0.5341308116912842,-0.71,-2.3,-6.03,6.49
0.5443098545074463,-1.19,-2.76,-5.33,6.11
0.57607102394104,-1.37,-3.14,-4.91,5.98
0.578963041305542,-1.32,-3.09,-4.99,6.01
0.5806410312652588,-1.59,-3.39,-5.06,6.29
0.5834591388702393,-1.55,-3.78,-5.27,6.66
0.5935418605804443,-1.58,-3.9,-5.12,6.62
0.6033790111541748,-1.51,-4.25,-4.61,6.44
0.6141729354858398,-0.88,-5.31,-4.13,6.78
0.6238391399383545,-1.91,-5.32,-3.71,6.76
0.6337540149688721,-2.08,-4.05,-3.12,5.51
0.6441409587860107,-2.26,-3.56,-2.7,5.0
0.6761329174041748,-2.11,-4.27,-1.89,5.12
0.6790740489959717,-1.72,-4.98,-1.55,5.49
0.6807301044464111,-1.19,-4.93,-1.51,5.29
0.6838748455047607,-0.66,-4.66,-1.44,4.92
0.6934959888458252,0.04,-4.41,-1.34,4.6
0.7035248279571533,0.97,-4.25,-0.89,4.44
0.7137129306793213,1.98,-3.75,-0.9,4.33
0.7237498760223389,2.46,-3.27,-1.65,4.41
0.733691930770874,3.1,-3.07,-1.83,4.73
0.7435219287872314,4.02,-2.66,-1.89,5.17
0.7763559818267822,4.85,-2.2,-1.68,5.58
0.7786819934844971,5.41,-2.17,-1.07,5.92
0.7803559303283691,5.62,-2.02,-0.7,6.01
0.7829399108886719,5.72,-1.81,-0.39,6.01
0.7930920124053955,5.88,-1.75,-0.12,6.13
0.8029758930206299,6.26,-1.94,-0.02,6.55
0.8133459091186523,6.85,-2.29,0.27,7.22
0.8235349655151367,7.59,-2.01,0.8,7.89
0.8333718776702881,8.18,-2.24,1.06,8.54
0.8432109355926514,9.3,-2.15,1.2,9.62
0.8758559226989746,10.47,-2.04,1.28,10.74
0.8786799907684326,11.54,-1.69,1.69,11.78
0.8803689479827881,12.66,-0.84,1.56,12.78
0.8837831020355225,13.35,-0.14,0.57,13.36
0.8941519260406494,14.02,0.23,0.51,14.03
0.9035670757293701,14.34,0.39,1.11,14.38
0.9141690731048584,13.82,0.72,1.19,13.88
0.9256110191345215,12.59,1.83,0.4,12.72
0.9330239295959473,10.71,3.73,-0.54,11.35
0.9429919719696045,8.82,4.78,-0.5,10.04
0.9714648723602295,8.56,5.96,0.34,10.43
0.9739959239959717,8.09,7.9,0.37,11.31
0.9756739139556885,6.62,9.36,0.49,11.47
0.98250412940979,6.33,9.45,0.66,11.39
0.9928309917449951,6.89,8.01,0.49,10.57
1.0023469924926758,7.19,6.47,0.36,9.67
1.0125060081481934,6.93,5.78,0.25,9.02
1.0230128765106201,6.72,5.47,0.45,8.67
1.032822847366333,6.5,5.07,0.48,8.25
1.0427510738372803,5.95,4.74,0.5,7.62
1.0737419128417969,5.23,4.61,0.72,7.0
1.0762369632720947,4.61,4.53,0.88,6.52
1.0778558254241943,4.14,4.38,0.72,6.06
1.082230806350708,3.54,4.07,0.78,5.45
1.0923240184783936,2.82,3.46,0.66,4.51
1.1025588512420654,2.72,3.52,0.54,4.48
1.1128599643707275,1.95,3.53,0.26,4.04
1.1225719451904297,1.35,3.33,0.4,3.61
1.132417917251587,1.64,3.16,0.17,3.56
1.1428987979888916,1.6,2.74,-0.33,3.19
1.1740400791168213,1.08,2.22,-0.33,2.49
1.1757769584655762,0.58,1.87,-0.3,1.98
1.1774029731750488,0.36,1.46,-0.52,1.59
1.1819961071014404,0.31,0.89,-0.73,1.19
1.1924588680267334,0.44,0.27,-1.08,1.19
1.2022109031677246,0.75,-0.5,-1.1,1.42
1.2125251293182373,0.8,-1.19,-0.59,1.55
1.2225010395050049,0.96,-1.62,-0.27,1.9
1.232342004776001,1.06,-2.2,-0.22,2.45
1.2423319816589355,0.85,-2.42,-0.17,2.57
1.2740659713745117,0.77,-2.47,-0.15,2.59
1.2771008014678955,1.04,-2.78,-0.11,2.97
1.2794678211212158,1.38,-3.23,-0.04,3.51
1.2830729484558105,1.38,-3.73,-0.09,3.97
1.292207956314087,1.28,-4.16,-0.54,4.38
1.3021728992462158,1.22,-4.76,-1.03,5.02
1.3122351169586182,1.08,-5.48,-1.37,5.75
1.3223209381103516,0.71,-6.3,-1.73,6.57
1.332082986831665,0.25,-7.15,-2.06,7.44
1.342271089553833,-0.07,-7.83,-2.22,8.13
1.3731768131256104,-0.21,-8.17,-2.23,8.47
1.375464916229248,-0.21,-8.37,-2.17,8.64
1.3775739669799805,0.08,-8.66,-2.15,8.92
1.3815181255340576,0.64,-9.05,-2.12,9.31
1.3918030261993408,1.07,-9.49,-2.02,9.76
1.4023029804229736,1.38,-9.79,-1.91,10.06
1.4120748043060303,1.56,-9.58,-1.73,9.85
1.4217450618743896,1.5,-8.95,-1.62,9.21
1.432102918624878,1.92,-8.4,-1.51,8.74
1.4416821002960205,2.77,-8.15,-1.54,8.74
1.4730088710784912,3.34,-8.03,-1.71,8.86
1.474937915802002,3.68,-7.87,-1.73,8.85
1.4765729904174805,4.32,-7.45,-1.46,8.73
1.4814231395721436,5.04,-6.81,-1.21,8.55
1.4913718700408936,5.5,-6.01,-1.12,8.22
1.5012469291687012,5.89,-5.11,-1.06,7.86
1.5117690563201904,6.06,-4.26,-1.15,7.49
1.5216538906097412,5.93,-3.65,-1.38,7.09
1.5315759181976318,5.59,-3.31,-1.74,6.72
1.5415639877319336,5.07,-2.97,-2.13,6.25
1.571800947189331,4.42,-2.56,-2.55,5.7
1.5736091136932373,3.7,-2.11,-2.88,5.14
1.5753958225250244,2.95,-1.61,-3.08,4.55
1.5811059474945068,2.33,-1.16,-3.15,4.08
1.5911359786987305,1.73,-0.71,-3.11,3.62
1.6017749309539795,1.15,-0.18,-2.97,3.18
1.6116349697113037,0.7,0.35,-2.84,2.94
1.6213300228118896,0.22,0.75,-2.72,2.83
1.6314480304718018,-0.16,1.06,-2.37,2.6
1.6413459777832031,-0.5,1.38,-1.92,2.41
1.6725029945373535,-0.87,1.69,-1.52,2.43
1.6743481159210205,-1.08,1.9,-1.11,2.45
1.675959825515747,-1.18,1.96,-0.9,2.45
1.680757999420166,-1.06,1.85,-0.72,2.25
1.6911189556121826,-0.6,1.85,-0.67,2.05
1.7012369632720947,-0.47,1.94,-0.7,2.11
1.711108922958374,-0.42,1.91,-0.54,2.02
1.7213881015777588,-0.19,1.83,-0.34,1.87
1.731071949005127,-0.04,1.8,-0.19,1.81
1.741387128829956,0.2,1.84,-0.13,1.85
1.7724430561065674,0.67,1.9,-0.15,2.02
1.774604082107544,1.04,1.92,-0.07,2.18
1.776235818862915,1.5,1.93,0.08,2.44
1.7807118892669678,1.92,2.02,0.22,2.79
1.790539026260376,2.32,2.25,0.31,3.24
1.8008430004119873,2.97,2.71,0.14,4.02
1.8112249374389648,3.54,3.24,-0.19,4.8
1.820950984954834,3.9,3.7,-0.34,5.38
1.8311588764190674,4.33,3.81,-0.19,5.77
1.8407838344573975,4.67,3.71,-0.04,5.96
1.8715589046478271,4.97,3.67,0.03,6.17
1.8733909130096436,5.38,3.85,-0.07,6.61
1.875054121017456,5.84,4.01,-0.09,7.08
1.8803949356079102,6.44,4.06,0.05,7.61
1.8903179168701172,7.12,4.02,0.1,8.17
1.900650978088379,7.71,3.99,0.11,8.68
1.9108340740203857,8.34,4.01,0.06,9.25
1.920691967010498,9.11,3.84,-0.13,9.88
1.9305999279022217,9.8,3.38,-0.28,10.37
1.9408209323883057,10.14,2.95,-0.31,10.56
1.971890926361084,10.17,2.83,-0.48,10.56
1.9743168354034424,10.02,2.95,-0.78,10.47
1.9767258167266846,9.69,3.12,-1.12,10.24
1.9799809455871582,9.36,3.0,-1.77,9.98
1.990112066268921,8.51,2.31,-1.81,9.0
2.000718832015991,6.87,1.32,-2.17,7.32
2.0104048252105713,5.42,0.89,-3.7,6.62
2.0206220149993896,4.79,0.84,-4.8,6.83
2.0304219722747803,5.11,1.06,-3.25,6.14
2.0402770042419434,5.48,0.5,-0.68,5.54
2.0716540813446045,5.54,-0.71,0.96,5.66
2.0737979412078857,5.54,-0.95,1.73,5.88
2.075312852859497,5.87,-0.58,1.85,6.18
2.0798981189727783,6.09,-1.15,1.18,6.3
2.0902488231658936,5.75,-1.49,0.74,5.98
2.100263833999634,5.08,-1.13,0.51,5.22
2.1104648113250732,4.43,-0.57,0.31,4.47
2.1202738285064697,3.79,-0.29,-0.19,3.8
2.130275011062622,3.11,-0.2,-0.75,3.2
2.140511989593506,2.48,-0.03,-0.78,2.59
2.171297788619995,1.72,0.29,-0.51,1.81
2.1730740070343018,0.92,0.37,-0.66,1.19
2.1747090816497803,0.18,0.14,-0.59,0.63
2.1796300411224365,-0.44,-0.08,-0.5,0.67
2.1899209022521973,-0.85,-0.14,-0.33,0.92
2.2000601291656494,-1.16,-0.3,-0.06,1.19
2.209927797317505,-1.3,-0.6,-0.15,1.43
2.220014810562134,-1.36,-0.98,-0.24,1.69
2.2299458980560303,-1.54,-1.58,-0.15,2.21
2.2399837970733643,-1.47,-2.12,-0.2,2.58
2.27167010307312,-1.24,-2.23,-0.08,2.55
2.274315118789673,-1.18,-2.83,0.13,3.06
2.2766549587249756,-1.24,-3.3,-0.1,3.52
2.280651807785034,-1.34,-3.74,-0.24,3.98
2.2897839546203613,-1.44,-4.03,-0.4,4.29
2.2998268604278564,-1.65,-4.36,-0.51,4.68
2.309921979904175,-2.01,-5.23,-0.22,5.6
2.319509983062744,-2.54,-5.57,0.62,6.15
2.3299059867858887,-2.74,-4.67,0.36,5.42
2.3396670818328857,-2.71,-4.93,0.6,5.65
2.371037006378174,-2.02,-5.35,0.61,5.75
2.3736488819122314,-0.99,-6.7,0.15,6.77
2.3752989768981934,-0.48,-8.32,0.96,8.38
2.3791069984436035,0.29,-8.71,1.33,8.81
2.3890531063079834,1.38,-8.77,1.35,8.97
2.399423837661743,2.03,-9.05,1.19,9.35
2.40972900390625,2.3,-9.29,1.16,9.64
2.419628858566284,2.24,-9.23,1.0,9.55
2.429379940032959,2.04,-9.12,0.64,9.36
2.4396169185638428,2.27,-9.1,0.08,9.37
2.470708131790161,2.68,-8.99,-0.68,9.4
2.472625970840454,2.87,-8.6,-1.43,9.17
2.4742748737335205,2.83,-8.04,-2.03,8.76
2.478940963745117,2.71,-7.47,-2.49,8.32
2.488938093185425,2.99,-6.94,-2.85,8.07
2.498798131942749,3.57,-6.55,-3.05,8.05
2.5093300342559814,4.11,-6.22,-2.94,8.01
2.5190649032592773,4.57,-5.65,-2.7,7.75
2.5291569232940674,5.11,-5.31,-2.5,7.78
2.539202928543091,5.75,-4.97,-2.21,7.91
2.5697710514068604,6.22,-4.6,-2.02,7.99
2.5716869831085205,6.48,-4.21,-1.89,7.95
2.5733540058135986,6.51,-3.69,-1.79,7.69
2.578709840774536,6.16,-3.18,-1.54,7.1
2.588641881942749,5.49,-2.6,-1.37,6.22
2.599329948425293,4.69,-2.02,-1.51,5.32
2.6092240810394287,3.73,-1.67,-1.75,4.44
2.6189639568328857,2.81,-1.25,-1.91,3.62
2.6289379596710205,1.92,-0.71,-2.0,2.86
2.639267921447754,1.02,-0.14,-1.99,2.24
2.6700398921966553,0.32,0.47,-1.96,2.04
2.6718339920043945,-0.28,1.07,-1.86,2.16
2.6735918521881104,-0.81,1.46,-1.61,2.31
2.678497076034546,-1.14,1.61,-1.38,2.4
2.688767910003662,-1.32,1.56,-1.19,2.36
2.6983249187469482,-1.56,1.47,-1.01,2.36
2.7087299823760986,-1.8,1.46,-0.86,2.47
2.7186291217803955,-1.92,1.43,-0.75,2.5
2.7286479473114014,-1.97,1.31,-0.63,2.44
2.738663911819458,-1.8,1.19,-0.52,2.21
2.7690560817718506,-1.41,1.12,-0.52,1.87
2.7707340717315674,-0.9,1.08,-0.58,1.52
2.772373914718628,-0.4,1.04,-0.64,1.28
2.7780678272247314,-0.08,1.11,-0.64,1.28
2.7882778644561768,0.25,1.4,-0.62,1.55
2.798733949661255,0.64,1.87,-0.66,2.08
2.808406114578247,1.13,2.32,-0.84,2.71
2.8183348178863525,1.82,2.68,-1.32,3.49
2.8287689685821533,2.32,3.12,-1.88,4.31
2.8382749557495117,2.42,3.63,-2.12,4.85
2.869407892227173,2.67,4.02,-2.03,5.23
2.8712151050567627,3.34,4.2,-1.84,5.67
2.8729679584503174,4.25,4.27,-1.83,6.29
2.8779571056365967,5.23,4.28,-1.88,7.01
2.8878390789031982,6.02,4.28,-1.8,7.6
2.8976991176605225,6.44,4.42,-1.52,7.95
2.9083619117736816,6.75,4.71,-1.18,8.31
2.918182134628296,7.32,4.99,-0.83,8.89
2.9280519485473633,8.12,5.19,-0.64,9.65
2.9384138584136963,8.87,5.31,-0.55,10.35
2.968406915664673,9.46,5.26,-0.48,10.83
2.970247983932495,10.14,4.86,-0.58,11.25
2.9719319343566895,10.7,3.93,-1.23,11.46
2.977687120437622,10.56,3.64,-1.83,11.31
2.987978935241699,9.94,3.83,-2.07,10.85
2.998098134994507,9.02,3.74,-2.58,10.09
3.0080530643463135,7.86,3.24,-2.94,8.99
3.0182278156280518,6.7,2.34,-2.21,7.43
3.027859926223755,5.7,1.55,-1.72,6.15
3.038038969039917,5.55,1.08,-1.68,5.89
3.069489002227783,5.85,0.48,-1.42,6.03
3.0715389251708984,5.88,-0.54,-0.81,5.96
3.0731160640716553,5.43,-1.69,-0.57,5.71
3.0772669315338135,5.26,-2.47,-0.37,5.82
3.087491989135742,5.2,-2.05,0.76,5.64
3.0981109142303467,5.21,-1.34,1.47,5.57
3.1076629161834717,5.29,-1.38,1.22,5.6
3.1176140308380127,4.92,-1.44,1.19,5.26
3.1277048587799072,4.22,-0.88,1.18,4.46
3.137659788131714,3.58,-0.65,0.74,3.71
3.168928861618042,3.0,-0.59,0.7,3.13
3.170681953430176,2.28,-0.21,0.75,2.4
3.172344923019409,1.39,-0.24,0.82,1.63
3.1771018505096436,0.57,-0.42,0.03,0.7
3.187227964401245,-0.08,-0.73,-0.15,0.74
3.197345018386841,-0.69,-0.67,-0.01,0.96
3.207667112350464,-1.2,-0.73,-0.08,1.4
3.2174108028411865,-1.56,-1.0,-0.26,1.87
3.227617025375366,-1.83,-1.26,-0.43,2.26
3.2373950481414795,-2.07,-1.37,-0.43,2.51
3.2675869464874268,-2.14,-1.45,-0.47,2.62
3.2694640159606934,-2.14,-1.59,-0.52,2.71
3.271028995513916,-2.12,-1.83,-0.64,2.87
3.2769339084625244,-1.96,-2.08,-0.45,2.89
3.2869069576263428,-1.71,-2.3,-0.33,2.88
3.2968227863311768,-1.5,-2.78,-0.26,3.16
3.307454824447632,-1.25,-3.01,-0.17,3.26
3.3171451091766357,-1.09,-2.97,-0.25,3.17
3.327188014984131,-1.06,-3.37,-0.77,3.61
3.337632894515991,-0.9,-3.51,-1.06,3.77
3.3673019409179688,-0.25,-3.29,-0.44,3.32
3.3691070079803467,0.09,-3.51,-0.37,3.53
3.3708019256591797,0.26,-3.58,-0.4,3.61
3.376702070236206,0.7,-3.84,-0.5,3.93
3.3867738246917725,1.15,-4.45,-0.35,4.6
3.3965790271759033,1.51,-4.88,-0.12,5.1
3.4065101146698,1.86,-5.48,-0.3,5.79
3.417531967163086,2.13,-6.41,-0.78,6.79
3.4268410205841064,2.14,-6.77,-1.19,7.19
3.4370779991149902,1.72,-7.0,-1.13,7.29
3.4659531116485596,1.29,-7.54,-0.73,7.68
3.467787027359009,1.42,-7.75,-0.48,7.89
3.469458818435669,1.81,-8.05,-0.53,8.26
3.476470947265625,1.98,-8.3,-0.59,8.55
3.490795850753784,2.2,-8.25,-0.58,8.55
3.496377944946289,2.97,-8.11,-0.52,8.65
3.506850004196167,3.86,-7.95,-0.56,8.85
3.5169529914855957,4.43,-7.67,-0.58,8.87
3.526676893234253,4.61,-7.22,-0.38,8.57
3.5367190837860107,4.59,-6.69,-0.08,8.11
3.5674331188201904,4.84,-6.21,0.07,7.87
3.569236993789673,5.25,-5.79,0.01,7.81
3.571272134780884,5.54,-5.43,-0.12,7.75
3.5761539936065674,5.71,-5.05,-0.23,7.62
3.586089849472046,5.78,-4.49,-0.33,7.32
3.596557855606079,5.59,-4.03,-0.57,6.91
3.606411933898926,5.08,-3.64,-0.84,6.3
3.616481065750122,4.21,-3.07,-1.1,5.32
3.6265270709991455,3.22,-2.42,-1.37,4.25
3.636568784713745,2.35,-1.82,-1.63,3.38
3.667691946029663,1.52,-1.21,-1.95,2.75
3.669528007507324,0.72,-0.65,-2.24,2.44
3.671315908432007,-0.04,-0.18,-2.37,2.37
3.675926923751831,-0.81,0.33,-2.46,2.61
3.68622088432312,-1.46,0.88,-2.68,3.17
3.6958119869232178,-1.98,1.29,-2.66,3.55
3.7061479091644287,-2.51,1.67,-2.53,3.93
3.7164628505706787,-2.76,1.89,-2.43,4.13
3.72613787651062,-2.85,1.91,-2.39,4.18
3.736449956893921,-2.79,1.83,-2.31,4.05
3.7672040462493896,-2.54,1.72,-2.21,3.78
3.769958972930908,-2.17,1.62,-2.17,3.47
3.7718818187713623,-1.82,1.6,-2.19,3.26
3.775705099105835,-1.46,1.67,-2.13,3.07
3.7859270572662354,-1.02,1.8,-2.18,3.0
3.795949935913086,-0.5,1.93,-2.25,3.0
3.805812120437622,0.2,2.0,-2.1,2.9
3.8159539699554443,0.95,2.1,-1.94,3.01
3.8260018825531006,1.71,2.15,-1.76,3.26
3.835965871810913,2.35,2.28,-1.62,3.65
3.8673088550567627,2.85,2.49,-1.5,4.07
3.8691799640655518,3.34,2.68,-1.43,4.51
3.8708250522613525,3.98,2.8,-1.32,5.04
3.875483989715576,4.51,2.89,-1.29,5.5
3.885535955429077,4.89,2.96,-1.52,5.91
3.8957619667053223,5.0,2.88,-1.86,6.06
3.9053869247436523,5.0,2.8,-2.02,6.07
3.9160330295562744,5.15,2.83,-2.07,6.23
3.925705909729004,5.35,3.02,-2.11,6.49
3.935516119003296,5.68,3.3,-2.07,6.88
3.9675638675689697,6.4,3.64,-1.98,7.62
3.9698259830474854,7.25,3.96,-2.01,8.5
3.9716529846191406,8.33,3.88,-2.17,9.44
3.975242853164673,9.46,3.21,-2.39,10.27
3.985503911972046,10.02,2.67,-2.76,10.73
3.9956159591674805,10.34,2.55,-2.95,11.05
4.005634069442749,10.37,2.53,-2.91,11.06
4.015783071517944,10.03,2.4,-2.73,10.66
4.025393962860107,9.51,2.27,-2.35,10.05
4.035339117050171,8.86,1.78,-1.93,9.24
4.067694902420044,8.04,0.94,-1.32,8.2
4.070074796676636,7.22,0.49,-0.42,7.24
4.071777105331421,6.53,-0.01,0.25,6.53
4.075494050979614,6.12,-0.77,0.91,6.23
4.084730863571167,5.74,-1.23,1.34,6.02
4.095150947570801,5.39,-1.33,1.3,5.7
4.105264902114868,5.29,-1.24,1.42,5.61
4.115121126174927,5.3,-0.86,2.11,5.76
4.125322103500366,5.17,-0.4,2.73,5.86
4.13506007194519,4.83,-0.16,2.77,5.57
4.165281057357788,4.33,-0.06,2.27,4.88
4.167933940887451,3.61,0.19,1.59,3.94
4.169631004333496,2.86,0.35,1.15,3.1
4.174619913101196,2.15,0.35,0.83,2.33
4.191932916641235,1.5,0.3,0.53,1.61
4.195058107376099,0.93,0.22,0.27,0.99
4.204879999160767,0.32,0.22,0.12,0.4
4.215030908584595,-0.28,0.21,-0.01,0.35
4.224923849105835,-0.87,0.14,-0.09,0.88
4.234861135482788,-1.39,-0.03,-0.24,1.41
4.266964912414551,-1.86,-0.36,-0.42,1.94
4.27006196975708,-2.23,-0.73,-0.52,2.4
4.2718188762664795,-2.5,-0.97,-0.69,2.76
4.275465965270996,-2.65,-1.18,-0.75,2.99
4.2844719886779785,-2.59,-1.49,-0.63,3.05
4.295071840286255,-2.38,-1.89,-0.57,3.09
4.304578065872192,-2.17,-2.26,-0.56,3.18
4.314730882644653,-1.78,-2.28,-0.5,2.93
4.324563980102539,-1.33,-2.58,-0.4,2.93
4.334656000137329,-0.95,-2.89,-0.26,3.05
4.366903066635132,-0.74,-3.1,-0.29,3.2
4.37054181098938,-0.46,-3.3,-0.29,3.34
4.372734785079956,-0.18,-3.47,-0.16,3.47
4.376230001449585,0.1,-3.63,-0.03,3.63
4.384130954742432,0.55,-3.94,0.01,3.97
4.394706964492798,0.96,-4.36,0.05,4.46
4.404588937759399,1.38,-4.8,0.16,4.99
4.4143760204315186,1.86,-5.33,0.22,5.64
4.424757957458496,2.36,-5.89,0.11,6.34
4.434369802474976,2.75,-6.38,-0.04,6.94
4.465984106063843,2.82,-6.87,-0.1,7.42
4.468500852584839,2.71,-7.33,-0.19,7.81
4.470139980316162,2.92,-7.87,-0.41,8.4
4.474023103713989,3.05,-8.55,-0.81,9.11
4.492033958435059,2.64,-8.89,-1.1,9.33
4.494776964187622,2.05,-8.75,-1.2,9.06
4.5042970180511475,2.01,-8.4,-1.24,8.72
4.51432204246521,2.7,-8.17,-1.27,8.69
4.5241899490356445,3.35,-7.92,-1.17,8.67
4.534342050552368,3.78,-7.51,-1.04,8.47
4.564695119857788,4.07,-7.03,-0.77,8.15
4.567292928695679,4.45,-6.34,-0.43,7.75
4.5694568157196045,4.88,-5.67,-0.3,7.48
4.573815107345581,5.13,-5.04,-0.3,7.19
4.5843729972839355,5.28,-4.33,-0.41,6.84
4.594151973724365,5.31,-3.71,-0.67,6.51
4.604079961776733,5.25,-3.15,-1.05,6.21
4.614209890365601,4.93,-2.67,-1.49,5.8
4.623992919921875,4.23,-2.21,-1.9,5.13
4.633914947509766,3.36,-1.81,-2.24,4.42
4.66628098487854,2.48,-1.41,-2.62,3.87
4.668535947799683,1.56,-1.02,-3.03,3.55
4.670516014099121,0.64,-0.61,-3.29,3.4
4.6734459400177,-0.26,-0.19,-3.42,3.43
4.69198203086853,-0.99,0.18,-3.45,3.59
4.694670915603638,-1.5,0.48,-3.27,3.62
4.7035369873046875,-1.84,0.67,-2.93,3.52
4.71380090713501,-2.16,0.83,-2.42,3.34
4.723891973495483,-2.37,1.0,-1.93,3.21
4.733690023422241,-2.44,1.1,-1.57,3.1
4.76444411277771,-2.45,1.06,-1.34,2.98
4.767039060592651,-2.38,0.93,-1.09,2.77
4.7686498165130615,-2.14,0.84,-0.92,2.47
4.773281812667847,-1.95,0.79,-0.88,2.28
4.783466100692749,-1.72,0.74,-0.85,2.05
4.7932140827178955,-1.31,0.65,-0.77,1.65
4.8037919998168945,-0.73,0.49,-0.66,1.09
4.813462972640991,0.05,0.36,-0.64,0.73
4.8233630657196045,0.66,0.36,-0.68,1.01
4.833558797836304,1.1,0.57,-0.65,1.39
4.865092039108276,1.57,0.82,-0.62,1.87
4.867506980895996,2.04,1.09,-0.66,2.4
4.869643926620483,2.14,1.26,-0.36,2.5
4.872941970825195,2.3,1.21,0.21,2.6
4.892578840255737,2.91,1.56,0.11,3.3
4.894951105117798,3.53,2.13,-0.15,4.12
4.9028260707855225,4.01,2.61,-0.47,4.8
4.913553953170776,4.45,2.86,-0.95,5.37
4.923234939575195,4.95,3.0,-1.5,5.97
4.933517932891846,5.34,3.22,-2.01,6.55
4.9645631313323975,5.69,3.42,-2.39,7.05
4.966871023178101,6.0,3.61,-2.66,7.49
4.968504905700684,6.42,3.79,-2.85,7.98
4.972723007202148,7.06,3.81,-2.9,8.53
4.98262095451355,8.03,3.45,-3.0,9.24
4.992719888687134,8.93,2.9,-3.11,9.89
5.00278902053833,9.32,2.53,-3.25,10.18
5.012903928756714,9.29,2.45,-3.22,10.13
5.023205995559692,9.19,2.47,-2.99,9.97
5.032984018325806,8.84,2.48,-2.61,9.54
5.062362909317017,8.27,2.51,-2.13,8.9
5.064500093460083,7.67,2.53,-1.52,8.21
5.066150903701782,7.13,2.36,-0.79,7.55
5.072441816329956,6.56,2.08,-0.13,6.88
5.082586050033569,5.94,1.72,0.41,6.19
5.09234094619751,5.47,1.3,0.72,5.66
5.102463960647583,5.26,0.94,0.79,5.4
5.112592935562134,5.14,0.73,0.79,5.25
5.123309850692749,5.01,0.76,0.86,5.13
5.132690906524658,4.84,1.02,0.94,5.03
5.163257837295532,4.6,1.27,0.92,4.85
5.165993928909302,4.28,1.38,0.98,4.6
5.167621850967407,3.83,1.15,0.7,4.05
5.172469854354858,2.21,0.17,-0.5,2.27
5.182265996932983,1.17,0.68,-1.41,1.95
5.192356824874878,0.72,1.42,-1.38,2.1
5.202733993530273,0.69,1.18,-0.54,1.46
5.2125489711761475,0.69,0.85,0.22,1.11
5.2224390506744385,0.44,0.77,0.87,1.24
5.232391119003296,0.42,0.8,1.75,1.96
5.263803958892822,0.45,0.41,2.21,2.29
5.266075849533081,0.29,-0.01,2.21,2.22
5.26765513420105,-0.07,-0.38,1.98,2.01
5.2731239795684814,-0.49,-0.76,1.38,1.64
5.281882047653198,-0.75,-0.68,0.64,1.19
5.292418003082275,-0.81,-0.51,0.03,0.95
5.302279949188232,-0.79,-0.59,-0.6,1.15
5.312240839004517,-0.8,-0.62,-0.65,1.2
5.322190999984741,-0.61,-0.69,0.08,0.92
5.332205057144165,-0.24,-0.71,-0.17,0.76
5.365126848220825,-0.01,-1.33,-0.62,1.46
5.367749929428101,0.3,-2.05,-0.53,2.13
5.369470834732056,0.56,-2.6,-0.36,2.68
5.3716139793396,0.69,-2.97,-0.3,3.06
5.393176794052124,0.77,-3.02,-0.2,3.12
5.395408868789673,0.86,-3.26,-0.2,3.37
5.401577949523926,1.08,-3.55,-0.18,3.71
5.412313938140869,1.45,-4.12,-0.21,4.37
5.422014951705933,2.0,-4.82,-0.3,5.22
5.431916952133179,2.46,-5.44,-0.49,5.99
5.462461948394775,2.86,-5.97,-0.68,6.65
5.46504807472229,3.06,-6.38,-0.86,7.12
5.46672797203064,2.72,-6.88,-1.02,7.46
5.471587896347046,2.24,-7.01,-0.1,7.35
5.481480836868286,2.09,-7.35,-0.8,7.68
5.491817951202393,2.07,-8.51,-0.75,8.79
5.501708984375,1.92,-9.03,-0.87,9.27
5.511786937713623,1.61,-9.21,-1.08,9.41
5.52190089225769,1.66,-9.2,-1.4,9.45
5.53171706199646,1.85,-9.11,-1.78,9.46
5.564924001693726,1.65,-8.84,-1.88,9.18
5.567770957946777,1.67,-8.54,-1.58,8.84
5.569447994232178,2.15,-8.4,-1.2,8.75
5.5712621212005615,2.86,-8.13,-1.0,8.67
5.591939926147461,3.63,-7.69,-0.94,8.55
5.59418511390686,4.1,-7.16,-0.89,8.29
5.601562976837158,4.33,-6.53,-0.83,7.87
5.611638784408569,4.48,-5.96,-0.87,7.5
5.621294975280762,4.56,-5.48,-1.06,7.2
5.631492853164673,4.33,-4.96,-1.34,6.71
5.663061857223511,3.7,-4.28,-1.66,5.89
5.665405035018921,2.77,-3.55,-2.02,4.93
5.6670567989349365,1.86,-2.9,-2.34,4.16
5.671029806137085,1.01,-2.1,-2.61,3.49
5.68106484413147,0.26,-1.29,-2.79,3.08
5.691468954086304,-0.38,-0.6,-2.88,2.96
5.701466798782349,-0.79,-0.05,-2.9,3.0
5.711313009262085,-1.06,0.39,-2.85,3.06
5.721596956253052,-1.18,0.77,-2.68,3.02
5.730982065200806,-1.18,1.13,-2.43,2.92
5.7623209953308105,-1.08,1.4,-2.21,2.83
5.764631986618042,-0.93,1.68,-2.05,2.8
5.766249895095825,-0.74,1.91,-1.91,2.8
5.770765066146851,-0.63,1.96,-1.78,2.72
5.780948877334595,-0.42,1.88,-1.69,2.56
5.790815114974976,-0.01,1.89,-1.58,2.46
5.800915002822876,0.5,1.97,-1.54,2.55
5.8113110065460205,0.86,2.02,-1.51,2.66
5.820969820022583,1.27,2.09,-1.41,2.82
5.831011056900024,1.67,2.16,-1.31,3.02
5.863977909088135,1.98,2.34,-1.16,3.27
5.866358995437622,2.34,2.68,-1.07,3.71
5.867998838424683,2.77,3.12,-1.11,4.31
5.8703858852386475,3.25,3.59,-1.18,4.98
5.8806610107421875,3.63,4.09,-1.26,5.61
5.89067006111145,3.94,4.58,-1.27,6.17
5.900789022445679,4.53,4.87,-1.32,6.78
5.910746812820435,5.06,5.0,-1.54,7.27
5.920983076095581,5.13,5.12,-1.54,7.4
5.9308249950408936,5.25,5.3,-1.35,7.58
5.963485956192017,5.46,5.51,-1.44,7.88
5.965768098831177,5.76,5.65,-1.69,8.24
5.9674060344696045,6.39,5.64,-1.94,8.74
5.970577955245972,7.13,5.41,-2.38,9.26
5.980591058731079,7.39,5.24,-2.85,9.49
5.990494966506958,7.45,5.08,-3.01,9.5
6.000566005706787,7.89,4.5,-2.94,9.54
6.010466814041138,8.48,3.46,-2.97,9.62
6.020743131637573,8.59,2.53,-2.93,9.42
6.030433893203735,8.24,2.08,-2.56,8.87
6.0628440380096436,7.88,1.93,-1.99,8.35
6.0656960010528564,7.52,1.84,-1.35,7.85
6.067384958267212,6.99,1.76,-0.5,7.22
6.071100950241089,6.48,1.56,0.46,6.68
6.08035683631897,6.14,1.22,1.13,6.36
6.0920569896698,5.96,0.78,1.52,6.2
6.100472927093506,5.89,0.21,1.74,6.14
6.1103150844573975,5.84,-0.18,1.94,6.15
6.120014905929565,5.84,-0.43,2.08,6.21
6.130177974700928,5.71,-0.5,2.16,6.12
6.1626060009002686,5.61,-0.35,2.12,6.0
6.164971113204956,5.6,-0.15,1.99,5.94
6.166636943817139,5.5,-0.07,1.89,5.81
6.169856786727905,5.38,0.01,1.74,5.65
6.179776906967163,5.14,0.13,1.5,5.35
6.189635992050171,4.79,0.32,1.29,4.97
6.200060129165649,4.31,0.46,1.21,4.5
6.210275888442993,3.72,0.54,1.19,3.94
6.220010042190552,3.07,0.45,1.18,3.31
6.230273008346558,2.39,0.32,1.2,2.69
6.261541128158569,1.84,0.09,1.15,2.17
6.263930082321167,1.32,-0.19,0.99,1.66
6.265620946884155,0.82,-0.55,0.81,1.27
6.269374132156372,0.4,-1.05,0.65,1.29
6.279627084732056,0.07,-1.57,0.48,1.64
6.289600133895874,-0.15,-2.08,0.33,2.11
6.299692869186401,-0.35,-2.68,0.12,2.7
6.310112953186035,-0.51,-3.34,-0.09,3.37
6.319669008255005,-0.74,-3.91,-0.16,3.98
6.329735040664673,-1.05,-4.35,-0.12,4.47
6.362062931060791,-1.2,-4.72,-0.08,4.87
6.364435911178589,-1.26,-5.06,-0.05,5.21
6.3660900592803955,-1.34,-5.43,-0.04,5.59
6.369127035140991,-1.46,-5.84,-0.09,6.02
6.379241943359375,-1.52,-6.03,-0.12,6.21
6.389419794082642,-1.4,-6.05,-0.2,6.21
6.399155855178833,-1.15,-6.29,-0.36,6.4
6.4092857837677,-0.72,-6.57,-0.52,6.62
6.419588804244995,-0.2,-6.83,-0.57,6.85
6.42943000793457,0.45,-7.12,-0.57,7.15
6.459352970123291,1.11,-7.41,-0.63,7.51
6.462114095687866,1.57,-7.62,-0.74,7.81
6.463773012161255,1.83,-7.75,-0.82,8.0
6.468971014022827,2.09,-7.87,-0.79,8.18
6.4790120124816895,2.56,-8.17,-0.82,8.6
6.489078998565674,2.92,-8.53,-1.03,9.07
6.499584913253784,2.73,-8.56,-1.15,9.05
6.509336948394775,2.55,-8.3,-1.1,8.75
6.519255876541138,2.85,-8.02,-1.18,8.59
6.5296008586883545,3.4,-7.83,-1.43,8.65
6.560699939727783,3.8,-7.58,-1.65,8.63
6.563059091567993,4.13,-7.19,-1.61,8.44
6.564726114273071,4.51,-6.83,-1.41,8.3
6.568687915802002,5.07,-6.57,-1.3,8.39
6.578791856765747,5.58,-6.18,-1.32,8.43
6.588680028915405,5.86,-5.49,-1.24,8.12
6.598865985870361,6.16,-4.79,-1.28,7.9
6.608991861343384,6.26,-4.26,-1.4,7.7
6.6190221309661865,6.01,-3.9,-1.56,7.33
6.62920880317688,5.39,-3.53,-1.76,6.67
6.659520864486694,4.45,-3.09,-2.07,5.79
6.662142038345337,3.37,-2.68,-2.36,4.91
6.66380500793457,2.29,-2.15,-2.59,4.07
6.668651819229126,1.35,-1.61,-2.79,3.49
6.678596019744873,0.59,-1.09,-2.84,3.09
6.68839693069458,-0.01,-0.58,-2.81,2.86
6.698885917663574,-0.45,-0.13,-2.69,2.73
6.708817005157471,-0.71,0.19,-2.44,2.54
6.719437837600708,-0.92,0.53,-2.1,2.35
6.728813886642456,-1.13,0.85,-1.75,2.24
6.759764909744263,-1.31,1.17,-1.44,2.27
6.762357950210571,-1.38,1.45,-1.22,2.34
6.764013051986694,-1.34,1.62,-1.1,2.37
6.768221139907837,-1.16,1.66,-1.01,2.26
6.778203010559082,-0.93,1.67,-0.91,2.11
6.788151025772095,-0.43,1.63,-0.74,1.84
6.798617124557495,0.1,1.58,-0.67,1.71
6.808398008346558,0.59,1.65,-0.63,1.86
6.818567991256714,0.94,1.83,-0.74,2.18
6.828579902648926,1.11,1.97,-0.79,2.39
6.860145807266235,1.48,2.07,-0.88,2.69
6.86247181892395,1.87,2.29,-1.06,3.14
6.864154100418091,2.11,2.65,-1.19,3.59
6.867999792098999,2.33,3.16,-1.29,4.13
6.878014802932739,2.48,3.77,-1.4,4.72
6.888680934906006,2.71,4.3,-1.37,5.26
6.898554086685181,3.3,4.57,-1.27,5.77
6.908324956893921,4.04,4.74,-1.32,6.36
6.9183409214019775,4.7,4.84,-1.45,6.9
6.928230047225952,5.39,4.98,-1.54,7.49
6.960618019104004,5.82,5.18,-1.67,7.96
6.9629600048065186,6.05,5.33,-1.61,8.22
6.96467399597168,6.37,5.44,-1.43,8.49
6.967766046524048,6.89,5.52,-1.38,8.93
6.977730989456177,7.64,5.47,-1.25,9.47
6.987851858139038,8.63,5.15,-1.11,10.11
6.998413801193237,9.78,4.59,-1.06,10.85
7.008025884628296,10.61,4.19,-1.17,11.46
7.018201112747192,10.97,4.23,-1.51,11.85
7.028187036514282,10.78,4.5,-1.74,11.81
7.05928897857666,10.41,4.5,-1.66,11.46
7.06164288520813,9.76,4.15,-1.68,10.73
7.063333988189697,9.0,3.68,-1.66,9.86
7.067530870437622,8.31,3.17,-1.42,9.0
7.077607870101929,7.61,2.6,-1.13,8.12
7.0877509117126465,7.11,1.98,-1.02,7.45
7.097700834274292,6.82,1.28,-0.89,6.99
7.108107805252075,6.45,0.6,-0.6,6.5
7.117739915847778,5.99,0.0,-0.28,5.99
7.127961874008179,5.46,-0.48,-0.24,5.48
7.1589930057525635,4.86,-1.13,0.05,4.98
7.161374807357788,4.12,-1.23,0.71,4.35
7.163052797317505,3.49,-1.12,1.16,3.84
7.167479991912842,2.84,-1.37,1.23,3.38
7.177235841751099,2.05,-1.99,0.59,2.91
7.1874001026153564,1.6,-1.76,0.48,2.42
7.1974709033966064,1.23,-1.72,0.69,2.22
7.207525968551636,0.8,-1.56,1.1,2.06
7.217581033706665,0.16,-1.34,1.31,1.88
7.227661848068237,-0.65,-1.48,1.29,2.06
7.257972002029419,-1.3,-1.55,0.85,2.19
7.260792970657349,-1.72,-1.7,0.41,2.45
7.262483835220337,-1.84,-1.74,0.63,2.6
7.266926050186157,-2.33,-1.82,0.72,3.04
7.276956796646118,-2.67,-1.62,0.43,3.15
7.287194013595581,-2.66,-1.38,0.19,3.0
7.296957969665527,-2.4,-1.67,-0.15,2.92
7.307689905166626,-2.29,-2.07,0.2,3.09
7.317260026931763,-2.14,-1.74,0.3,2.77
7.327191114425659,-1.61,-2.14,-0.44,2.71
7.357676982879639,-1.31,-2.78,-0.22,3.08
7.360330820083618,-1.19,-2.73,-0.05,2.97
7.361992120742798,-1.0,-2.89,0.11,3.06
7.36674690246582,-0.7,-3.19,0.19,3.27
7.376760005950928,-0.29,-3.33,0.15,3.34
7.387012958526611,0.07,-3.49,0.14,3.49
7.397188901901245,0.38,-3.66,0.09,3.68
7.407010793685913,0.75,-3.94,0.2,4.01
7.417197942733765,1.33,-4.41,0.59,4.64
7.4269609451293945,2.11,-4.96,1.03,5.48
7.45967698097229,3.06,-5.61,1.2,6.5
7.46248984336853,3.99,-6.2,0.95,7.43
7.464262008666992,4.58,-6.56,0.56,8.02
7.467327833175659,4.48,-6.63,0.21,8.0
7.476542949676514,3.74,-6.6,-0.13,7.58
7.486905813217163,2.8,-6.64,-0.46,7.22
7.496916055679321,2.05,-6.87,-0.82,7.21
7.507043123245239,1.86,-7.25,-1.2,7.58
7.516774892807007,1.83,-7.54,-1.71,7.94
7.526654958724976,1.65,-7.41,-2.21,7.9
7.559924840927124,1.38,-6.97,-2.38,7.49
7.56245493888855,1.56,-6.59,-2.3,7.15
7.564205884933472,2.11,-6.27,-2.24,6.98
7.567402124404907,2.83,-5.92,-2.23,6.93
7.5762529373168945,3.56,-5.55,-2.14,6.93
7.586713075637817,4.25,-5.17,-1.99,6.98
7.59695291519165,5.0,-4.84,-1.78,7.18
7.6065309047698975,5.7,-4.47,-1.7,7.44
7.616722822189331,6.04,-3.91,-1.65,7.38
7.626702070236206,6.05,-3.29,-1.46,7.03
7.659832000732422,5.82,-2.66,-1.21,6.51
7.661765813827515,5.48,-2.14,-1.0,5.96
7.663451910018921,5.01,-1.97,-0.94,5.46
7.666826009750366,4.41,-1.93,-0.87,4.89
7.675969839096069,3.73,-1.71,-0.77,4.17
7.68622899055481,2.93,-1.32,-0.77,3.3
7.6963441371917725,2.14,-0.83,-0.78,2.42
7.706308126449585,1.36,-0.26,-0.84,1.61
7.7165749073028564,0.69,0.34,-0.82,1.12
7.726264953613281,0.26,0.8,-0.77,1.14
7.758497953414917,0.03,0.96,-0.67,1.17
7.760946989059448,-0.04,1.02,-0.41,1.1
7.762603998184204,-0.03,1.14,-0.22,1.16
7.765765905380249,-0.09,1.24,-0.29,1.27
7.775760889053345,-0.28,1.34,-0.55,1.47
7.7859580516815186,-0.42,1.35,-0.88,1.66
7.795664072036743,-0.55,1.39,-1.19,1.91
7.806509971618652,-0.85,1.47,-1.47,2.24
7.816011905670166,-1.07,1.55,-1.54,2.43
7.826228857040405,-0.99,1.73,-1.64,2.58
7.8569090366363525,-0.78,1.96,-1.76,2.74
7.858661890029907,-0.27,2.17,-1.76,2.8
7.8603270053863525,0.42,2.39,-1.76,2.99
7.865473985671997,1.0,2.65,-1.69,3.29
7.875507116317749,1.42,2.95,-1.63,3.65
7.885873079299927,1.79,3.31,-1.54,4.06
7.895952939987183,2.15,3.53,-1.36,4.35
7.905835866928101,2.54,3.64,-1.26,4.61
7.91598105430603,2.9,3.75,-1.14,4.87
7.9258599281311035,3.35,3.77,-0.92,5.12
7.958012819290161,3.87,3.77,-0.73,5.45
7.95986795425415,4.43,3.99,-0.7,6.0
7.961528062820435,4.99,4.42,-0.69,6.7
7.9651899337768555,5.53,4.9,-0.69,7.42
7.975341081619263,6.11,5.38,-0.93,8.19
7.985280990600586,6.76,5.85,-1.52,9.06
7.995628118515015,7.28,6.29,-2.17,9.86
8.005651950836182,7.92,6.35,-2.64,10.48
8.015508890151978,8.78,5.69,-2.99,10.88
8.02550482749939,9.34,4.87,-3.53,11.1
8.057131052017212,9.31,4.43,-3.73,10.96
8.05905795097351,9.25,4.32,-3.07,10.66
8.060645818710327,9.61,4.52,-2.71,10.96
8.065021991729736,10.01,4.85,-2.94,11.5
8.075429916381836,10.35,5.02,-3.25,11.95
8.084880113601685,10.31,4.89,-3.56,11.95
8.0952730178833,9.67,4.32,-3.78,11.24
8.105650901794434,8.63,3.17,-3.69,9.9
8.11536693572998,7.33,1.84,-3.08,8.16
8.12530779838562,6.16,0.85,-2.16,6.58
8.155872106552124,5.45,0.27,-1.31,5.61
8.157809972763062,4.89,-0.03,-0.59,4.92
8.15949296951294,4.29,-0.1,0.08,4.29
8.164730787277222,3.66,-0.14,0.63,3.71
8.174731016159058,3.12,-0.34,0.95,3.27
8.184948921203613,2.37,-1.36,0.97,2.89
8.195151090621948,1.39,-2.27,1.69,3.15
8.205151796340942,0.74,-1.79,1.79,2.63
8.215102910995483,0.55,-1.24,0.83,1.59
8.224726915359497,0.55,-1.43,0.42,1.58
8.257378816604614,0.21,-1.56,0.77,1.75
8.25921893119812,-0.26,-1.32,0.85,1.59
8.260883092880249,-0.53,-1.21,0.56,1.43
8.26441502571106,-0.75,-1.03,0.25,1.29
8.274451971054077,-0.83,-0.72,0.21,1.11
8.284734964370728,-0.79,-0.71,0.13,1.07
8.294919967651367,-0.81,-0.98,-0.02,1.27
8.30497694015503,-0.72,-1.04,-0.27,1.29
8.314954042434692,-0.56,-1.28,-0.56,1.5
8.324665784835815,-0.45,-1.5,-0.56,1.66
8.356390953063965,-0.39,-1.69,-0.61,1.83
8.358230829238892,-0.27,-1.93,-0.7,2.07
8.359863042831421,-0.12,-2.16,-0.82,2.31
8.364199876785278,0.07,-2.42,-0.85,2.56
8.374263048171997,0.31,-2.66,-0.81,2.79
8.384378910064697,0.61,-2.95,-0.84,3.12
8.394757986068726,0.77,-3.29,-0.74,3.45
8.404581785202026,0.95,-3.55,-0.53,3.71
8.414535999298096,1.26,-3.73,-0.41,3.95
8.424746990203857,1.65,-4.01,-0.46,4.36
8.456323862075806,1.95,-4.43,-0.58,4.87
8.458141088485718,2.16,-4.88,-0.62,5.37
8.459803819656372,2.34,-5.33,-0.58,5.84
8.464008092880249,2.57,-5.83,-0.67,6.4
8.474168062210083,2.74,-6.3,-0.85,6.92
8.484040975570679,2.76,-6.72,-0.95,7.32
8.49399209022522,2.74,-7.11,-0.98,7.68
8.504611015319824,2.71,-7.47,-1.06,8.01
8.514323949813843,3.0,-7.7,-1.18,8.34
8.524253129959106,3.6,-7.94,-1.5,8.84
8.555480003356934,3.89,-8.26,-1.95,9.33
8.5572988986969,3.59,-8.45,-2.27,9.45
8.558990955352783,3.12,-8.35,-2.35,9.21
8.563714981079102,2.97,-8.03,-2.35,8.87
8.573716878890991,3.1,-7.7,-2.32,8.61
8.583719968795776,3.48,-7.49,-2.12,8.52
8.594069957733154,4.04,-7.39,-1.68,8.58
8.604270935058594,4.98,-7.29,-1.21,8.91
8.614017963409424,6.14,-7.05,-0.96,9.39
8.624191999435425,7.02,-6.64,-0.99,9.71
8.655493974685669,7.35,-6.16,-0.98,9.63
8.657313108444214,7.14,-5.41,-0.73,8.98
8.658967971801758,6.37,-4.55,-0.44,7.84
8.663535833358765,5.24,-3.67,-0.35,6.4
8.673813104629517,4.02,-2.79,-0.41,4.91
8.683483839035034,2.81,-2.1,-0.54,3.54
8.693812131881714,1.62,-1.52,-0.74,2.34
8.703873872756958,0.59,-0.95,-0.9,1.43
8.713838815689087,-0.27,-0.43,-0.98,1.1
8.723933935165405,-1.04,0.07,-1.06,1.48
8.75412392616272,-1.7,0.48,-1.06,2.06
8.75586485862732,-2.23,0.87,-1.08,2.62
8.75747799873352,-2.5,1.18,-1.13,2.98
8.763369798660278,-2.46,1.36,-1.16,3.04
8.773643016815186,-2.12,1.45,-1.22,2.84
8.783572912216187,-1.59,1.58,-1.39,2.63
8.793195009231567,-1.1,1.69,-1.47,2.49
8.803737878799438,-0.35,1.7,-1.36,2.2
8.813606023788452,0.42,1.67,-1.32,2.16
8.823462009429932,0.92,1.7,-1.28,2.31
8.855870008468628,1.36,1.63,-1.2,2.43
8.857661962509155,1.72,1.39,-1.12,2.47
8.859242916107178,1.92,1.18,-1.03,2.47
8.863044023513794,2.05,1.08,-0.84,2.46
8.873188018798828,2.21,1.23,-0.68,2.61
8.882913827896118,2.33,1.7,-0.64,2.95
8.893726110458374,2.44,2.38,-0.75,3.49
8.903342008590698,2.37,3.18,-0.93,4.07
8.9133141040802,2.24,3.84,-0.98,4.55
8.923532009124756,2.47,4.16,-1.02,4.94
8.955159902572632,2.79,4.35,-1.15,5.29
8.956973791122437,3.22,4.46,-1.3,5.65
8.9586341381073,3.51,4.68,-1.37,6.0
8.962873935699463,3.86,5.01,-1.5,6.49
8.972862958908081,4.25,5.41,-1.7,7.08
8.982919931411743,4.69,5.99,-1.95,7.85
8.992727994918823,5.31,6.46,-2.28,8.66
9.003190994262695,5.97,6.67,-2.68,9.34
9.013127088546753,6.76,6.4,-3.01,9.78
9.022949934005737,7.44,5.73,-3.24,9.93
9.055324792861938,7.71,5.05,-3.42,9.83
9.057123899459839,7.58,4.76,-3.32,9.54
9.0587317943573,7.65,4.63,-2.93,9.4
9.062587976455688,7.84,4.43,-2.42,9.32
9.072561979293823,7.94,4.17,-1.79,9.14
9.082576036453247,7.99,3.95,-1.07,8.97
9.09243893623352,7.78,3.55,-0.28,8.55
9.102843046188354,7.38,2.91,0.38,7.94
9.113147974014282,6.78,2.17,0.81,7.16
9.12282681465149,5.99,1.5,1.14,6.27
9.153012990951538,5.22,0.92,1.4,5.48
9.154847860336304,4.54,0.49,1.55,4.82
9.156474828720093,4.13,0.19,1.56,4.41
9.162415981292725,4.04,-0.37,1.48,4.31
9.172568082809448,3.59,-0.59,1.66,3.99
9.182213068008423,3.52,-0.09,1.45,3.8
9.192798852920532,3.53,0.11,0.99,3.66
9.202752828598022,3.48,-0.2,0.82,3.58
9.212544918060303,3.75,-0.16,0.7,3.81
9.222769021987915,3.41,0.18,0.42,3.44
9.254626035690308,2.69,0.33,0.58,2.77
9.2564218044281,1.94,0.35,0.26,1.98
9.2583589553833,1.52,0.85,0.25,1.75
9.262093782424927,1.06,0.65,0.17,1.25
9.272145986557007,0.57,0.25,0.16,0.64
9.282263994216919,0.11,0.14,0.2,0.26
9.292157888412476,-0.31,-0.02,0.25,0.39
9.302318811416626,-0.58,-0.29,0.31,0.71
9.312709093093872,-0.73,-0.67,0.27,1.02
9.322281122207642,-0.74,-0.97,0.43,1.29
9.354084014892578,-0.73,-1.29,0.28,1.5
9.35592007637024,-0.69,-1.9,0.21,2.03
9.357574939727783,-0.64,-2.43,0.08,2.51
9.361833810806274,-0.66,-2.83,-0.15,2.9
9.37199592590332,-0.7,-3.12,-0.37,3.21
9.381768941879272,-0.67,-3.36,-0.49,3.46
9.39190411567688,-0.59,-3.47,-0.6,3.57
9.402216911315918,-0.6,-3.52,-0.68,3.63
9.41208791732788,-0.58,-3.55,-0.66,3.65
9.422027826309204,-0.25,-3.54,-0.76,3.62
9.453082799911499,0.3,-3.74,-0.97,3.87
9.454906940460205,0.87,-4.15,-1.01,4.35
9.456636905670166,1.52,-4.7,-0.92,5.02
9.461541891098022,2.16,-5.28,-0.84,5.76
9.471635103225708,2.61,-5.81,-0.81,6.42
9.48178505897522,2.9,-6.15,-0.83,6.84
9.491564989089966,2.97,-6.39,-0.86,7.09
9.501936912536621,2.87,-6.68,-0.69,7.3
9.512091875076294,2.85,-7.11,-0.46,7.67
9.521747827529907,3.19,-7.62,-0.33,8.26
9.553407907485962,3.69,-8.13,-0.27,8.93
9.555211782455444,3.93,-8.47,-0.38,9.34
9.55684208869934,3.76,-8.34,-0.48,9.16
9.561460018157959,3.73,-7.88,-0.53,8.73
9.571337938308716,3.97,-7.5,-0.63,8.5
9.581415891647339,3.83,-6.91,-0.78,7.93
9.59141492843628,3.43,-6.05,-0.69,6.98
9.60168194770813,3.49,-5.28,-0.51,6.34
9.611575841903687,3.9,-4.8,-0.59,6.21
9.621762037277222,4.34,-4.43,-0.92,6.26
9.652836084365845,4.79,-4.0,-1.19,6.35
9.6547110080719,5.17,-3.64,-1.43,6.48
9.656419038772583,5.4,-3.36,-1.7,6.58
9.661187887191772,5.47,-3.19,-1.89,6.6
9.671453952789307,5.21,-3.05,-2.0,6.35
9.681087970733643,4.61,-2.8,-2.12,5.79
9.69099497795105,3.86,-2.43,-2.18,5.05
9.7014000415802,2.97,-1.99,-2.19,4.19
9.711671113967896,2.01,-1.43,-2.35,3.4
9.721429109573364,1.22,-0.8,-2.24,2.67
9.752920866012573,0.44,-0.85,-1.76,2.0
9.754753828048706,-0.17,-0.65,-1.56,1.69
9.756422996520996,-0.43,-0.25,-1.52,1.59
9.760926008224487,-0.56,-0.27,-1.16,1.31
9.77109408378601,-0.74,-0.05,-0.83,1.11
9.780808925628662,-1.11,0.07,-0.61,1.26
9.790810823440552,-1.54,0.2,-0.53,1.64
9.801288843154907,-1.73,0.33,-0.53,1.83
9.81122612953186,-1.65,0.33,-0.67,1.81
9.820987939834595,-1.6,0.24,-0.83,1.81
9.852347135543823,-1.55,0.19,-0.73,1.72
9.854092836380005,-1.24,0.18,-0.64,1.4
9.8557608127594,-0.77,0.3,-0.84,1.17
9.860605955123901,-0.29,0.51,-0.95,1.11
9.870543003082275,0.34,0.79,-0.92,1.25
9.880921125411987,1.14,1.01,-0.99,1.81
9.891137838363647,1.83,1.32,-1.18,2.54
9.900873899459839,2.37,1.71,-1.26,3.18
9.911173105239868,2.43,2.16,-1.28,3.49
9.92096209526062,2.23,2.56,-1.41,3.67
9.95285701751709,2.08,2.95,-1.87,4.06
9.95465898513794,2.1,3.13,-2.4,4.46
9.956815958023071,2.56,2.97,-3.0,4.93
9.960362911224365,2.92,2.94,-3.54,5.44
9.970485925674438,3.27,3.13,-3.56,5.75
9.980472803115845,3.66,3.48,-3.25,6.0
9.990368127822876,4.21,4.01,-3.01,6.54
10.000862836837769,5.1,4.51,-2.93,7.41
10.01062798500061,6.14,4.91,-3.07,8.43
10.020665884017944,7.29,5.14,-3.3,9.51
10.051883935928345,8.6,5.19,-3.45,10.62
10.053627967834473,9.88,5.03,-3.83,11.72
10.05532193183899,10.62,4.75,-4.29,12.39
10.060174942016602,10.91,4.59,-4.6,12.69
10.069977045059204,10.74,4.53,-4.61,12.53
10.080289125442505,10.24,4.28,-4.35,11.92
10.08999490737915,9.62,3.91,-3.98,11.12
10.100692987442017,8.93,3.38,-3.42,10.14
10.110522985458374,8.36,2.75,-2.78,9.22
10.12024188041687,7.81,2.28,-1.98,8.37
10.152631998062134,7.04,1.9,-1.07,7.36
10.154425859451294,6.21,1.53,-0.34,6.4
10.156122922897339,5.46,1.23,0.07,5.59
10.159878969192505,4.79,1.04,0.37,4.91
10.169888019561768,4.41,0.96,0.58,4.55
10.179692029953003,4.14,0.98,0.66,4.3
10.190140008926392,3.91,1.05,0.71,4.11
10.200086832046509,3.65,1.03,0.51,3.82
10.210108041763306,3.23,0.91,0.26,3.36
10.220335006713867,2.99,0.9,0.39,3.14
10.251354932785034,2.81,0.16,0.19,2.82
10.253112077713013,2.18,-0.45,0.67,2.32
10.254729986190796,1.82,0.65,0.54,2.0
10.259639024734497,1.57,1.47,0.48,2.2
10.26942491531372,1.52,1.27,0.74,2.11
10.279711961746216,1.14,0.76,0.49,1.45
10.289883852005005,0.43,0.37,0.21,0.6
10.299888849258423,-0.26,0.09,0.05,0.27
10.309972047805786,-0.88,-0.04,-0.3,0.93
10.31970500946045,-1.18,0.01,-0.38,1.23
10.353008031845093,-1.13,-0.07,-0.23,1.15
10.355491876602173,-0.91,-0.09,0.18,0.93
10.357127904891968,-0.96,-0.94,0.92,1.62
10.359721899032593,-0.81,-0.98,0.47,1.35
10.369425058364868,-0.6,-0.92,0.03,1.09
10.379317045211792,-0.68,-1.29,-0.09,1.46
10.389655828475952,-0.56,-1.52,0.27,1.64
10.399770975112915,-0.14,-0.96,0.29,1.01
10.409631967544556,0.45,-1.35,-0.11,1.42
10.419788122177124,0.96,-1.93,-0.2,2.16
10.451853036880493,1.17,-2.05,-0.13,2.36
10.453642129898071,1.37,-2.29,-0.08,2.66
10.455320119857788,1.55,-2.6,-0.11,3.02
10.45913290977478,1.71,-3.18,-0.24,3.61
10.469069957733154,2.34,-3.6,-0.24,4.3
10.479156970977783,2.79,-4.61,-0.23,5.39
10.489514112472534,3.23,-5.02,-0.57,5.99
10.499304056167603,3.72,-5.15,-0.61,6.38
10.509443044662476,4.19,-5.44,-0.13,6.86
10.51931095123291,4.07,-5.75,-0.12,7.04
10.552905797958374,3.86,-6.36,-0.11,7.44
10.556071043014526,3.92,-6.99,-0.01,8.01
10.557743787765503,3.82,-7.83,-0.05,8.71
10.560928106307983,3.22,-8.56,-0.12,9.14
10.568795919418335,2.47,-8.84,0.0,9.17
10.579432964324951,2.44,-8.78,0.1,9.11
10.589246988296509,2.71,-8.82,-0.15,9.22
10.599417924880981,2.6,-8.78,-0.32,9.16
10.609149932861328,2.22,-8.12,-0.07,8.41
10.61899209022522,2.22,-7.25,0.33,7.58
10.653491973876953,2.67,-6.57,0.35,7.1
10.656044006347656,3.38,-5.91,0.19,6.81
10.657710790634155,4.09,-5.14,-0.04,6.56
10.660876035690308,4.68,-4.6,-0.33,6.57
10.669096946716309,5.09,-4.44,-0.71,6.79
10.67897891998291,5.11,-4.34,-1.09,6.79
10.688889980316162,4.72,-4.21,-1.65,6.53
10.699074983596802,3.98,-3.95,-2.1,5.98
10.70892882347107,3.06,-3.69,-2.32,5.32
10.718932867050171,2.17,-3.36,-2.38,4.65
10.7530038356781,1.33,-2.95,-2.39,4.02
10.756137132644653,0.58,-2.54,-2.28,3.46
10.758738994598389,0.02,-2.1,-2.02,2.91
10.761327028274536,-0.42,-1.62,-1.78,2.44
10.768333911895752,-0.78,-1.29,-1.5,2.12
10.778517007827759,-1.02,-1.02,-1.2,1.87
10.788763999938965,-1.17,-0.7,-1.05,1.72
10.798757791519165,-1.36,-0.52,-0.98,1.75
10.809282064437866,-1.46,-0.34,-0.91,1.75
10.818672895431519,-1.42,-0.16,-0.9,1.68
10.851792097091675,-1.34,-0.1,-0.98,1.66
10.853996992111206,-1.22,-0.03,-1.12,1.65
10.855695009231567,-1.1,0.06,-1.22,1.64
10.859101057052612,-0.96,0.19,-1.29,1.61
10.8682119846344,-0.75,0.16,-1.2,1.42
10.878156900405884,-0.41,0.12,-1.02,1.1
10.888597965240479,0.07,0.29,-1.0,1.04
10.898567914962769,0.73,0.57,-1.13,1.46
10.908468008041382,1.41,0.86,-1.27,2.08
10.918678998947144,2.01,1.25,-1.52,2.81
10.950970888137817,2.49,1.61,-1.85,3.49
10.95398998260498,2.92,1.98,-2.13,4.12
10.955643892288208,3.27,2.44,-2.4,4.73
10.958915948867798,3.59,2.96,-2.68,5.36
10.967870950698853,3.83,3.56,-3.03,6.04
10.978240013122559,4.04,4.05,-3.26,6.58
10.988193988800049,4.23,4.26,-3.34,6.86
10.998044967651367,4.51,4.34,-3.47,7.15
11.008356809616089,4.81,4.6,-3.67,7.6
11.018034934997559,5.05,5.01,-3.79,8.06
11.050959825515747,5.34,5.32,-3.88,8.47
11.054183959960938,5.73,5.43,-3.93,8.81
11.055812120437622,6.34,5.23,-4.11,9.18
11.058929920196533,7.14,4.97,-4.32,9.71
11.067537069320679,7.93,4.65,-4.55,10.25
11.077570915222168,8.3,4.36,-4.88,10.56
11.08824610710144,8.29,4.26,-5.03,10.59
11.09786581993103,8.09,4.28,-4.66,10.27
11.107881784439087,7.86,4.17,-4.04,9.77
11.11798095703125,7.63,3.98,-3.56,9.31
11.150038957595825,7.41,3.74,-2.96,8.81
11.152837038040161,7.11,3.4,-2.21,8.18
11.154657125473022,6.65,2.96,-1.54,7.44
11.158253908157349,6.12,2.43,-0.96,6.65
11.167521953582764,5.72,1.98,-0.46,6.07
11.177294969558716,5.56,1.55,-0.04,5.77
11.187689065933228,5.5,1.09,0.2,5.61
11.197896957397461,5.31,0.5,0.07,5.33
11.20774793624878,5.02,0.56,0.09,5.05
11.217739820480347,4.92,0.69,0.18,4.97
11.250046968460083,4.5,0.36,-0.02,4.51
11.252877950668335,3.85,0.33,-0.29,3.87
11.254694938659668,3.96,1.01,-0.67,4.14
11.258213996887207,4.03,0.88,-0.64,4.17
11.267340898513794,3.42,0.34,-0.47,3.46
11.277765035629272,2.68,0.28,-0.32,2.71
11.287420988082886,1.89,-0.03,-0.08,1.89
11.297353029251099,0.96,-0.53,0.12,1.1
11.307698965072632,0.25,-0.95,-0.43,1.07
11.317327976226807,-0.54,-2.25,-0.73,2.42
11.35017991065979,-1.32,-1.68,1.38,2.54
11.352451086044312,-1.81,0.15,1.75,2.52
11.35408902168274,-1.56,0.2,0.53,1.65
11.356857061386108,-1.17,-0.32,0.02,1.21
11.37532091140747,-1.0,-0.53,0.17,1.14
11.377099990844727,-0.93,-0.77,0.15,1.21
11.386895895004272,-0.82,-1.05,0.18,1.34
11.39725399017334,-0.77,-1.34,0.49,1.62
11.40701699256897,-0.91,-1.76,0.76,2.12
11.416815996170044,-0.91,-2.19,0.79,2.49
11.447938919067383,-0.55,-2.38,0.56,2.5
11.450600862503052,-0.09,-2.41,0.37,2.43
11.452256917953491,0.22,-2.46,0.24,2.48
11.456459999084473,0.43,-2.27,-0.07,2.31
11.466712951660156,0.54,-2.0,-0.38,2.1
11.476615905761719,0.69,-1.78,-0.68,2.02
11.486831903457642,0.96,-1.52,-0.97,2.04
11.497028112411499,1.4,-1.71,-1.05,2.44
11.506868124008179,2.09,-2.09,-0.89,3.08
11.516814947128296,2.92,-2.51,-0.87,3.94
11.549969911575317,3.47,-3.24,-0.69,4.79
11.552350997924805,3.82,-3.68,-0.44,5.32
11.55398678779602,4.01,-4.17,-0.29,5.79
11.556434869766235,3.99,-4.77,-0.07,6.21
11.574939012527466,3.84,-5.48,0.22,6.69
11.576777935028076,3.87,-6.34,0.35,7.43
11.586387872695923,3.88,-7.15,0.24,8.13
11.59662413597107,3.45,-7.58,0.07,8.32
11.606611967086792,2.54,-7.48,-0.12,7.9
11.616787910461426,1.77,-7.07,-0.11,7.28
11.648823976516724,1.72,-6.82,-0.12,7.03
11.651771783828735,2.01,-6.85,-0.44,7.15
11.653403997421265,2.27,-6.78,-0.72,7.18
11.656203031539917,2.56,-6.47,-0.83,7.0
11.67317509651184,2.94,-6.14,-0.75,6.84
11.676153898239136,3.33,-5.8,-0.73,6.72
11.686445951461792,3.73,-5.39,-0.94,6.62
11.696363925933838,4.09,-4.92,-1.27,6.52
11.706634998321533,4.22,-4.57,-1.62,6.42
11.716341018676758,4.05,-4.33,-1.98,6.25
11.748103857040405,3.59,-4.08,-2.36,5.92
11.750450849533081,2.97,-3.79,-2.7,5.52
11.752100944519043,2.24,-3.43,-3.0,5.07
11.756531953811646,1.46,-3.04,-3.16,4.62
11.765795946121216,0.81,-2.7,-3.14,4.21
11.775856971740723,0.35,-2.43,-2.96,3.84
11.785820007324219,0.01,-2.16,-2.66,3.42
11.796396017074585,-0.3,-1.87,-2.29,2.97
11.806328058242798,-0.55,-1.6,-1.78,2.45
11.816340923309326,-0.67,-1.35,-1.39,2.05
11.847152948379517,-0.79,-1.02,-1.14,1.72
11.849997997283936,-0.86,-0.66,-0.87,1.39
11.85168194770813,-0.92,-0.33,-0.65,1.17
11.855685949325562,-0.93,-0.02,-0.52,1.06
11.865916967391968,-0.83,0.25,-0.43,0.96
11.875531911849976,-0.56,0.41,-0.48,0.84
11.885876893997192,-0.3,0.47,-0.7,0.89
11.895931005477905,-0.18,0.57,-0.94,1.11
11.905779123306274,-0.04,0.76,-1.0,1.25
11.915786981582642,0.36,1.01,-1.06,1.5
11.948953866958618,0.91,1.3,-1.21,1.99
11.951255083084106,1.59,1.55,-1.27,2.55
11.953430891036987,2.27,1.95,-1.48,3.33
11.955379009246826,2.87,2.59,-1.84,4.28
11.976243019104004,3.37,3.21,-2.11,5.11
11.978604078292847,3.69,3.81,-2.45,5.84
11.98525881767273,3.82,4.3,-2.64,6.32
11.995638132095337,3.88,4.55,-2.63,6.53
12.00568699836731,3.97,4.59,-2.58,6.59
12.01587200164795,4.23,4.55,-2.57,6.72
12.04663896560669,4.66,4.53,-2.6,6.99
12.049465894699097,5.1,4.65,-2.59,7.37
12.051175832748413,5.59,4.78,-2.56,7.78
12.055219888687134,5.96,4.86,-2.67,8.14
12.06509280204773,6.15,4.96,-2.77,8.37
12.075479984283447,6.23,5.09,-2.94,8.56
12.085528135299683,6.26,5.14,-3.11,8.67
12.095348119735718,6.52,4.9,-3.32,8.8
12.105770826339722,6.92,4.38,-3.61,8.95
12.115329027175903,7.17,3.88,-3.81,8.99
12.149233102798462,7.19,3.61,-3.74,8.87
12.153002977371216,7.02,3.48,-3.56,8.6
12.155585050582886,6.84,3.34,-3.29,8.29
12.157925844192505,6.58,3.16,-2.85,7.83
12.176184892654419,6.26,2.93,-2.28,7.27
12.178477048873901,6.01,2.59,-1.76,6.77
12.18515396118164,5.7,2.16,-1.35,6.24
12.195410966873169,5.26,1.73,-0.93,5.61
12.205180883407593,4.84,1.31,-0.49,5.03
12.215112924575806,4.41,0.9,-0.11,4.5
12.249190092086792,4.0,0.56,0.35,4.05
12.252919912338257,3.82,0.27,0.74,3.9
12.25556492805481,3.72,0.13,1.03,3.86
12.257158994674683,3.65,0.04,1.22,3.84
12.275962114334106,3.54,-0.25,1.26,3.76
12.278260946273804,3.41,-0.76,1.2,3.69
12.284987926483154,3.71,-0.32,1.33,3.95
12.295164823532104,3.92,0.28,1.01,4.05
12.304922819137573,3.74,0.24,1.14,3.91
12.314940929412842,3.32,0.23,1.13,3.51
12.349093914031982,2.79,0.49,0.83,2.95
12.352286100387573,2.24,0.72,0.81,2.48
12.354182004928589,1.62,0.67,0.7,1.88
12.355854988098145,1.02,0.71,0.61,1.38
12.376009941101074,0.71,0.85,0.59,1.25
12.37834906578064,0.5,0.69,0.49,0.98
12.384706020355225,0.29,0.57,0.59,0.87
12.394621133804321,-0.05,0.23,0.55,0.59
12.404754877090454,-0.32,0.02,0.81,0.87
12.414591073989868,-0.49,-0.14,0.61,0.79
12.446587800979614,-0.67,-0.76,0.53,1.14
12.449505090713501,-0.87,-1.11,0.54,1.51
12.451146841049194,-0.96,-1.43,0.51,1.79
12.454220056533813,-0.81,-1.73,0.37,1.94
12.464410066604614,-0.54,-1.96,0.19,2.04
12.474102973937988,-0.31,-2.13,0.06,2.15
12.484436988830566,-0.08,-2.33,-0.06,2.33
12.494559049606323,0.1,-2.54,-0.18,2.54
12.504426956176758,0.15,-2.74,-0.31,2.76
12.51429796218872,0.26,-2.97,-0.41,3.0
12.547006845474243,0.55,-3.3,-0.48,3.37
12.54944896697998,1.04,-3.72,-0.61,3.91
12.551160097122192,1.71,-4.26,-0.72,4.64
12.554379940032959,2.7,-4.86,-0.84,5.62
12.563941955566406,3.56,-5.43,-1.06,6.57
12.573805093765259,3.92,-5.89,-1.17,7.17
12.583921909332275,3.84,-6.21,-1.16,7.39
12.59418511390686,3.24,-6.55,-1.07,7.38
12.604305982589722,2.49,-6.99,-0.84,7.46
12.614104986190796,1.89,-7.42,-0.66,7.68
12.644392013549805,1.94,-7.82,-0.67,8.08
12.647082090377808,2.28,-8.17,-0.78,8.51
12.648697137832642,2.44,-8.3,-0.85,8.69
12.653568029403687,2.16,-8.08,-0.84,8.4
12.663566827774048,1.99,-7.69,-0.68,7.97
12.673612833023071,2.49,-7.43,-0.66,7.86
12.68424105644226,3.16,-7.16,-0.94,7.88
12.693854093551636,3.74,-6.88,-1.06,7.9
12.703863859176636,3.96,-6.57,-0.88,7.72
12.713899850845337,4.01,-6.08,-0.54,7.3
12.746115922927856,4.27,-5.55,-0.34,7.01
12.748986959457397,4.58,-5.0,-0.3,6.78
12.750679969787598,4.72,-4.43,-0.23,6.47
12.753939867019653,4.65,-3.8,-0.13,6.0
12.763552904129028,4.51,-3.26,-0.13,5.56
12.77341890335083,4.21,-2.89,-0.39,5.12
12.783729791641235,3.59,-2.55,-0.8,4.47
12.793785810470581,2.89,-2.14,-1.11,3.76
12.803684949874878,2.22,-1.77,-1.44,3.18
12.813767910003662,1.6,-1.44,-1.78,2.79
12.845824956893921,1.03,-1.02,-2.1,2.55
12.848749876022339,0.47,-0.47,-2.38,2.47
12.850471019744873,-0.03,0.04,-2.45,2.45
12.853338956832886,-0.44,0.43,-2.41,2.48
12.863326787948608,-0.78,0.66,-2.29,2.5
12.872980833053589,-0.98,0.77,-2.06,2.4
12.88353180885315,-1.13,0.87,-1.83,2.32
12.893641948699951,-1.24,0.84,-1.4,2.05
12.903194904327393,-1.1,0.77,-1.05,1.7
12.913281917572021,-0.91,0.77,-1.03,1.57
12.946255922317505,-0.79,0.73,-1.04,1.49
12.948637962341309,-0.68,0.68,-1.01,1.39
12.950312852859497,-0.37,0.75,-1.07,1.35
12.952940940856934,0.02,0.88,-1.28,1.55
12.962949991226196,0.32,1.05,-1.43,1.8
12.972759008407593,0.79,1.34,-1.51,2.16
12.982815027236938,1.38,1.74,-1.68,2.78
12.993093967437744,2.04,2.16,-1.93,3.54
13.003494024276733,2.55,2.67,-2.18,4.28
13.013184785842896,2.81,3.24,-2.3,4.86
13.043718099594116,3.02,3.75,-2.36,5.36
13.046395063400269,3.24,4.24,-2.49,5.88
13.048016786575317,3.5,4.62,-2.54,6.32
13.052624940872192,3.84,4.83,-2.7,6.73
13.062766790390015,4.16,4.91,-2.83,7.03
13.072778940200806,4.38,4.93,-2.76,7.14
13.082894086837769,4.65,4.99,-2.57,7.28
13.092879056930542,5.01,4.87,-2.24,7.33
13.102914094924927,5.71,4.58,-1.95,7.57
13.113094091415405,6.68,4.3,-2.0,8.19
13.144986867904663,7.78,3.88,-2.32,8.99
13.147952795028687,8.9,3.3,-2.81,9.89
13.149608850479126,9.44,2.64,-3.55,10.42
13.15230393409729,9.32,2.2,-4.21,10.46
13.162431955337524,9.06,1.99,-4.52,10.31
13.172582864761353,8.35,1.87,-4.75,9.78
13.182899951934814,7.39,1.99,-4.72,8.99
13.19296908378601,6.65,2.22,-4.29,8.21
13.202679872512817,6.21,2.09,-3.67,7.51
13.212714910507202,5.7,1.68,-3.09,6.69
13.245775938034058,5.13,1.14,-2.46,5.8
13.248140096664429,4.78,0.52,-1.93,5.18
13.249791860580444,4.57,0.01,-1.56,4.82
13.252930879592896,4.38,-0.32,-1.13,4.53
13.262150049209595,4.28,-0.37,-0.66,4.34
13.272268056869507,4.33,-0.22,-0.25,4.34
13.28332781791687,4.37,0.19,-0.03,4.37
13.292371988296509,4.3,0.48,-0.07,4.32
13.302351951599121,3.73,0.34,-0.6,3.79
13.3126380443573,3.02,0.52,-1.17,3.28
13.344629049301147,3.01,0.93,-0.81,3.25
13.346941947937012,2.8,0.75,-0.16,2.9
13.34854006767273,2.16,0.73,0.14,2.28
13.351927042007446,1.53,0.85,-0.05,1.75
13.361904859542847,0.84,0.85,-0.15,1.2
13.372194051742554,0.2,0.72,0.07,0.75
13.3818359375,-0.62,0.66,0.38,0.98
13.3920738697052,-1.16,0.52,0.65,1.42
13.402425050735474,-1.37,0.15,0.62,1.51
13.41218900680542,-1.53,-0.25,0.36,1.59
13.443948030471802,-1.88,-0.65,0.62,2.08
13.446201086044312,-2.27,-0.65,1.08,2.59
13.447759866714478,-2.23,-0.92,0.8,2.54
13.451719999313354,-1.88,-1.14,0.54,2.26
13.461714029312134,-1.59,-1.12,0.53,2.01
13.471554040908813,-1.41,-1.2,0.57,1.93
13.481945991516113,-1.17,-1.23,0.15,1.7
13.491940975189209,-0.77,-1.38,-0.21,1.59
13.502026796340942,-0.47,-1.55,-0.28,1.64
13.512197971343994,-0.22,-1.81,-0.26,1.84
13.542809009552002,0.09,-2.12,-0.29,2.14
13.545377969741821,0.37,-2.07,-0.38,2.13
13.547012090682983,0.81,-2.46,-0.51,2.63
13.551284074783325,1.3,-2.81,-0.51,3.13
13.561607122421265,1.8,-3.2,-0.47,3.7
13.571527004241943,2.41,-3.59,-0.53,4.35
13.581406831741333,2.97,-3.97,-0.8,5.02
13.591960906982422,3.25,-4.43,-1.05,5.59
13.601784944534302,3.42,-4.84,-1.08,6.02
13.611554861068726,3.48,-5.2,-1.08,6.34
13.644273042678833,3.27,-5.66,-1.02,6.61
13.646593809127808,3.04,-6.16,-0.88,6.92
13.648234128952026,3.14,-6.69,-0.77,7.43
13.650943994522095,3.37,-7.23,-0.77,8.01
13.661198854446411,3.36,-7.46,-0.7,8.21
13.67126202583313,3.18,-7.18,-0.51,7.86
13.681509017944336,3.42,-6.73,-0.47,7.56
13.691555976867676,4.09,-6.35,-0.75,7.59
13.701390027999878,4.64,-5.96,-1.08,7.63
13.711593866348267,4.84,-5.54,-1.06,7.43
13.742372989654541,5.02,-5.14,-0.84,7.23
13.744992971420288,5.13,-4.67,-0.83,6.98
13.746649980545044,5.18,-4.17,-0.98,6.72
13.750888109207153,5.14,-3.67,-1.06,6.4
13.761183977127075,4.87,-3.23,-1.14,5.95
13.771408796310425,4.35,-2.96,-1.28,5.41
13.780862092971802,3.72,-2.87,-1.41,4.9
13.791299104690552,3.08,-2.85,-1.52,4.46
13.80115294456482,2.4,-2.77,-1.74,4.05
13.811180830001831,1.75,-2.63,-2.02,3.74
13.844395875930786,1.15,-2.47,-2.27,3.54
13.846693992614746,0.51,-2.27,-2.47,3.39
13.848352909088135,-0.19,-1.96,-2.56,3.22
13.851549863815308,-0.79,-1.58,-2.62,3.15
13.860721826553345,-1.29,-1.17,-2.68,3.19
13.870666980743408,-1.79,-0.82,-2.6,3.26
13.881097078323364,-2.14,-0.49,-2.37,3.23
13.891119003295898,-2.28,-0.19,-2.13,3.12
13.900938987731934,-2.31,0.0,-1.87,2.97
13.91090178489685,-2.24,0.03,-1.57,2.73
13.944499015808105,-2.13,-0.05,-1.3,2.49
13.946294069290161,-2.06,-0.19,-1.12,2.35
13.947925806045532,-2.0,-0.35,-1.0,2.26
13.95124888420105,-1.88,-0.5,-0.83,2.11
13.960434913635254,-1.58,-0.64,-0.61,1.81
13.970886945724487,-1.1,-0.79,-0.52,1.45
13.9807288646698,-0.56,-0.87,-0.38,1.1
13.990633964538574,0.02,-0.84,-0.23,0.87
14.000958919525146,0.7,-0.64,-0.21,0.97
14.010601997375488,1.22,-0.28,-0.22,1.27
14.043678045272827,1.65,0.09,-0.19,1.66
14.045992136001587,2.06,0.54,-0.16,2.13
14.047645807266235,2.48,1.16,-0.25,2.74
14.05032992362976,2.9,1.81,-0.55,3.46
14.06019401550293,3.26,2.33,-0.86,4.09
14.069949865341187,3.76,2.88,-1.5,4.96
14.080619096755981,4.16,3.74,-2.75,6.23
14.090636014938354,4.22,4.47,-3.68,7.16
14.100382089614868,4.3,4.97,-4.26,7.83
14.110678911209106,4.52,5.39,-4.81,8.52
14.142550945281982,4.97,5.85,-5.25,9.29
14.144920110702515,5.7,6.36,-5.57,10.19
14.146512985229492,6.54,6.69,-5.68,10.94
14.150084972381592,7.43,6.59,-5.47,11.33
14.159868001937866,8.42,6.14,-5.1,11.6
14.170026063919067,9.31,5.5,-4.92,11.87
14.179987907409668,9.87,5.05,-4.86,12.1
14.190086126327515,10.24,4.83,-4.52,12.19
14.200009107589722,10.24,4.59,-4.02,11.91
14.210293054580688,9.79,4.36,-3.51,11.27
14.24416184425354,9.15,4.07,-2.82,10.4
14.245983839035034,8.58,3.54,-1.98,9.49
14.24767804145813,8.07,2.77,-1.18,8.61
14.251266956329346,7.4,1.95,-0.61,7.67
14.259674787521362,6.65,1.37,-0.21,6.79
14.269788026809692,6.05,1.02,0.1,6.13
14.27955412864685,5.55,0.71,0.19,5.59
14.289891958236694,5.1,0.45,0.15,5.12
14.300211906433105,4.69,0.31,0.03,4.7
14.309863805770874,4.34,0.27,-0.04,4.34
14.34269404411316,4.07,0.26,-0.08,4.07
14.34447193145752,3.86,0.29,-0.06,3.87
14.346132040023804,3.63,0.38,-0.09,3.65
14.349390983581543,3.23,0.34,-0.08,3.24
14.359524011611938,2.52,0.07,0.08,2.52
14.369302988052368,2.41,0.22,0.31,2.43
14.380064964294434,2.09,0.54,0.44,2.2
14.389683961868286,1.6,0.43,0.61,1.76
14.399650812149048,0.91,0.47,0.73,1.25
14.409909009933472,0.24,0.51,0.71,0.9
14.44208312034607,-0.21,0.3,0.82,0.89
14.4439218044281,-0.5,0.02,0.94,1.06
14.445576906204224,-0.76,-0.27,1.0,1.28
14.449213981628418,-0.94,-0.53,1.1,1.54
14.459421873092651,-0.99,-0.8,1.12,1.69
14.46911883354187,-1.03,-1.09,1.07,1.84
14.479228973388672,-1.09,-1.47,1.04,2.1
14.48958706855774,-1.08,-1.9,0.99,2.39
14.49949598312378,-0.96,-2.26,0.85,2.59
14.509397983551025,-0.78,-2.53,0.72,2.74
14.54257607460022,-0.57,-2.79,0.59,2.9
14.544391870498657,-0.39,-3.06,0.5,3.12
14.546067953109741,-0.11,-3.29,0.47,3.32
14.54895806312561,0.34,-3.52,0.42,3.56
14.55884599685669,0.79,-3.74,0.33,3.83
14.568871974945068,1.17,-3.99,0.39,4.17
14.579154968261719,1.45,-4.27,0.36,4.52
14.589546918869019,1.62,-4.64,0.27,4.92
14.5991849899292,1.77,-5.06,0.19,5.36
14.609410047531128,1.96,-5.56,0.15,5.89
14.640405893325806,2.38,-6.03,0.06,6.48
14.642214059829712,2.92,-6.35,-0.09,6.98
14.643922090530396,3.17,-6.48,-0.12,7.21
14.648737907409668,3.02,-6.46,-0.07,7.13
14.658628940582275,2.74,-6.54,-0.07,7.09
14.668844938278198,2.81,-6.86,-0.19,7.41
14.678795099258423,2.86,-7.37,-0.54,7.92
14.688598871231079,2.63,-7.64,-0.69,8.1
14.699362993240356,2.56,-7.59,-0.56,8.02
14.70886778831482,3.01,-7.43,-0.42,8.02
14.741971969604492,3.9,-7.23,-0.44,8.22
14.743818998336792,4.36,-6.77,-0.53,8.06
14.745481967926025,4.27,-6.03,-0.35,7.39
14.74839186668396,4.27,-5.2,0.01,6.72
14.758366823196411,4.41,-4.44,0.01,6.25
14.768611907958984,4.7,-3.83,-0.15,6.06
14.77871298789978,5.03,-3.35,-0.23,6.04
14.789026021957397,5.32,-2.94,-0.35,6.08
14.79868483543396,5.42,-2.62,-0.62,6.05
14.808945894241333,5.26,-2.43,-0.87,5.85
14.839670896530151,4.78,-2.34,-1.07,5.42
14.841478109359741,4.15,-2.24,-1.29,4.88
14.843143939971924,3.48,-2.03,-1.53,4.3
14.848076105117798,2.78,-1.77,-1.71,3.71
14.85843801498413,2.04,-1.52,-1.79,3.11
14.86817193031311,1.32,-1.25,-1.8,2.55
14.878216981887817,0.64,-0.97,-1.81,2.15
14.888583898544312,-0.01,-0.69,-1.77,1.89
14.898510932922363,-0.54,-0.39,-1.65,1.77
14.908427953720093,-0.98,-0.11,-1.47,1.77
14.941333055496216,-1.27,0.15,-1.28,1.8
14.943185091018677,-1.42,0.38,-1.12,1.84
14.944875001907349,-1.39,0.54,-1.0,1.79
14.94859790802002,-1.31,0.6,-0.89,1.69
14.95790982246399,-1.1,0.54,-0.88,1.5
14.968065977096558,-0.83,0.45,-0.94,1.33
14.978457927703857,-0.67,0.4,-0.92,1.2
14.988299131393433,-0.57,0.38,-0.83,1.07
14.998288869857788,-0.3,0.38,-0.88,1.0
15.008437871932983,0.07,0.49,-1.02,1.13
15.04013991355896,0.62,0.64,-1.13,1.43
15.041961908340454,1.26,0.84,-1.4,2.06
15.043605089187622,1.82,1.06,-1.62,2.65
15.047695875167847,2.28,1.31,-1.82,3.19
15.057924032211304,2.34,1.66,-2.12,3.56
15.067631006240845,2.1,2.1,-2.18,3.68
15.07779598236084,1.73,2.43,-2.01,3.59
15.088256120681763,1.55,2.48,-1.71,3.38
15.097935914993286,1.72,2.66,-1.83,3.65
15.10798192024231,2.19,2.89,-2.05,4.16
15.14025092124939,2.73,3.16,-2.35,4.79
15.142030954360962,3.07,3.63,-2.66,5.44
15.143679857254028,3.63,4.02,-2.64,6.02
15.14722990989685,3.99,4.41,-2.87,6.6
15.157432794570923,4.35,4.68,-3.07,7.08
15.167642831802368,4.91,5.1,-3.36,7.83
15.17751693725586,5.91,5.5,-3.92,8.97
15.18747091293335,7.24,5.38,-4.54,10.09
15.197813987731934,8.53,5.12,-5.13,11.19
15.207796812057495,9.05,5.05,-5.48,11.72
15.239468812942505,9.12,5.22,-5.18,11.71
15.241230964660645,9.15,5.34,-4.67,11.57
15.242851972579956,8.97,5.35,-4.17,11.24
15.247215986251831,8.7,5.05,-3.39,10.61
15.257164001464844,8.32,4.53,-2.51,9.8
15.267010927200317,7.6,3.79,-1.63,8.64
15.27733588218689,6.69,2.92,-0.85,7.34
15.287467956542969,5.87,2.14,-0.26,6.25
15.297383069992065,5.33,1.49,0.09,5.53
15.307626962661743,5.15,1.0,0.37,5.25
15.339452028274536,5.16,0.62,0.63,5.23
15.341229915618896,5.29,0.52,0.74,5.36
15.343053102493286,5.41,0.59,0.75,5.49
15.346823930740356,5.35,0.7,0.75,5.44
15.357138872146606,5.21,0.82,0.6,5.3
15.366935014724731,4.87,1.08,0.32,4.99
15.376880884170532,4.42,1.33,0.22,4.62
15.387290954589844,3.86,1.54,0.26,4.16
15.397219896316528,3.23,1.64,0.29,3.63
15.40726113319397,2.68,1.62,0.38,3.15
15.43942904472351,2.22,1.53,0.53,2.74
15.441293001174927,1.85,1.3,0.66,2.35
15.442950010299683,1.37,1.1,0.77,1.91
15.446622133255005,0.85,0.86,0.93,1.52
15.456820011138916,0.36,0.52,1.04,1.21
15.46657681465149,-0.11,0.05,1.01,1.01
15.476722002029419,-0.49,-0.38,0.95,1.13
15.486459970474243,-0.75,-0.76,0.9,1.39
15.496981859207153,-0.99,-1.15,0.87,1.74
15.507160902023315,-1.09,-1.52,0.82,2.04
15.538224935531616,-1.0,-1.78,0.72,2.16
15.5400550365448,-0.86,-2.08,0.59,2.32
15.5417799949646,-0.78,-2.49,0.43,2.64
15.546406984329224,-0.72,-2.91,0.3,3.01
15.556582927703857,-0.58,-3.34,0.25,3.39
15.566364049911499,-0.38,-3.69,0.18,3.71
15.576300859451294,-0.17,-3.9,0.08,3.9
15.586500883102417,0.05,-4.09,0.11,4.09
15.596848964691162,0.31,-4.29,0.25,4.3
15.606631994247437,0.72,-4.58,0.28,4.64
15.636346101760864,1.22,-5.02,0.21,5.17
15.638284921646118,1.77,-5.55,0.19,5.82
15.63992691040039,2.35,-6.12,0.28,6.56
15.646211862564087,2.88,-6.66,0.36,7.26
15.656207799911499,3.24,-7.01,0.45,7.73
15.665982007980347,3.39,-7.25,0.61,8.02
15.676265001296997,3.26,-7.47,0.63,8.17
15.686114072799683,2.81,-7.65,0.49,8.16
15.696382999420166,2.66,-7.81,0.28,8.25
15.706670045852661,2.93,-8.09,-0.09,8.6
15.737468004226685,3.0,-8.2,-0.63,8.75
15.739320993423462,2.74,-7.92,-0.93,8.43
15.740934133529663,2.41,-7.36,-1.0,7.8
15.745995998382568,2.24,-6.71,-1.06,7.15
15.757025957107544,2.49,-6.15,-1.21,6.74
15.765841960906982,2.78,-5.7,-1.42,6.49
15.775904893875122,3.0,-5.26,-1.41,6.21
15.786379098892212,3.4,-4.84,-1.24,6.04
15.79613995552063,3.9,-4.51,-1.24,6.08
15.806149959564209,4.56,-4.2,-1.27,6.32
15.83915090560913,5.28,-3.94,-1.25,6.7
15.840996980667114,5.74,-3.7,-1.23,6.93
15.842698812484741,5.91,-3.42,-1.17,6.92
15.846324920654297,5.75,-3.07,-1.08,6.6
15.855715990066528,5.27,-2.66,-1.06,5.99
15.86594295501709,4.55,-2.24,-1.22,5.21
15.875876903533936,3.76,-1.89,-1.46,4.45
15.88568902015686,2.91,-1.55,-1.64,3.68
15.896332025527954,2.01,-1.12,-1.74,2.88
15.906075954437256,1.17,-0.65,-1.8,2.24
15.936976909637451,0.45,-0.25,-1.83,1.9
15.938815832138062,-0.18,0.07,-1.77,1.78
15.940473794937134,-0.69,0.31,-1.7,1.86
15.945380926132202,-1.15,0.5,-1.57,2.0
15.955588102340698,-1.48,0.68,-1.41,2.15
15.965296983718872,-1.64,0.81,-1.23,2.2
15.975600957870483,-1.65,0.92,-1.08,2.17
15.98536491394043,-1.61,1.01,-1.03,2.16
15.995673894882202,-1.38,1.09,-0.95,1.99
16.005810976028442,-0.92,1.14,-0.92,1.72
16.0371310710907,-0.3,1.22,-0.98,1.59
16.03896999359131,0.42,1.34,-1.05,1.75
16.040877103805542,0.97,1.52,-1.14,2.13
16.045257806777954,1.37,1.72,-1.14,2.47
16.05519413948059,1.69,1.92,-1.24,2.84
16.06517791748047,1.87,2.24,-1.37,3.22
16.075105905532837,2.04,2.65,-1.53,3.67
16.085246801376343,2.24,3.08,-1.85,4.23
16.095463037490845,2.35,3.55,-2.17,4.77
16.105575799942017,2.36,4.07,-2.45,5.3
16.13598394393921,2.44,4.46,-2.76,5.78
16.13775086402893,2.63,4.52,-2.81,5.93
16.13941788673401,2.98,4.39,-2.76,5.98
16.144884824752808,3.37,4.27,-2.64,6.04
16.154899835586548,3.77,4.38,-2.2,6.18
16.165143966674805,4.33,4.46,-1.74,6.45
16.175079107284546,5.05,4.53,-1.6,6.97
16.184924840927124,5.81,4.71,-1.54,7.63
16.19540286064148,6.55,4.93,-1.5,8.33
16.205151796340942,7.48,4.96,-1.52,9.1
16.237367868423462,8.56,4.65,-1.89,9.92
16.239190816879272,9.41,4.34,-2.4,10.63
16.240858793258667,9.87,4.15,-2.67,11.03
16.2446711063385,9.99,4.09,-2.81,11.15
16.254781007766724,10.05,3.95,-2.96,11.19
16.264572858810425,9.71,3.82,-3.08,10.87
16.27518391609192,8.95,3.66,-2.79,10.06
16.28498387336731,8.24,3.24,-2.21,9.12
16.294945001602173,7.64,2.75,-1.68,8.29
16.305116891860962,7.08,2.08,-1.14,7.46
16.337647914886475,6.54,1.41,-0.84,6.74
16.33949303627014,6.1,0.76,-0.6,6.17
16.341131925582886,5.76,0.24,-0.31,5.77
16.344358921051025,5.5,0.07,-0.14,5.5
16.354488134384155,5.28,0.05,0.05,5.28
16.364436864852905,5.14,0.02,0.37,5.15
16.37436079978943,4.93,-0.13,0.6,4.96
16.384528875350952,4.81,-0.52,0.82,4.9
16.394482851028442,4.49,-0.62,1.0,4.64
16.404842138290405,4.06,-0.41,0.99,4.19
16.435410976409912,3.59,-0.62,0.75,3.71
16.437426805496216,3.01,-0.94,0.85,3.26
16.439032793045044,2.51,-0.92,1.24,2.94
16.444204092025757,2.18,-0.89,1.58,2.83
16.45433497428894,1.67,-1.11,1.81,2.7
16.464249849319458,0.87,-1.24,1.6,2.2
16.474108934402466,-0.03,-1.09,1.27,1.67
16.484162092208862,-0.65,-1.19,1.11,1.75
16.49465799331665,-1.11,-1.36,1.12,2.08
16.50459098815918,-1.51,-1.48,1.04,2.35
16.53555178642273,-1.76,-1.68,0.86,2.58
16.53882384300232,-1.95,-1.92,0.6,2.8
16.54047179222107,-2.07,-2.13,0.3,2.98
16.54396390914917,-2.1,-2.39,0.06,3.18
16.55387282371521,-2.01,-2.66,-0.19,3.33
16.563883066177368,-1.84,-2.87,-0.36,3.42
16.574028968811035,-1.52,-3.08,-0.46,3.46
16.584316968917847,-1.11,-3.31,-0.56,3.53
16.594084978103638,-0.75,-3.59,-0.61,3.71
16.604358911514282,-0.45,-3.86,-0.63,3.93
16.635774850845337,-0.23,-4.07,-0.55,4.11
16.637506008148193,-0.11,-4.18,-0.6,4.22
16.6392560005188,0.06,-4.31,-0.54,4.34
16.643669843673706,0.6,-4.66,-0.36,4.71
16.65361189842224,1.34,-5.13,-0.29,5.31
16.663671016693115,1.99,-5.57,-0.35,5.92
16.67357301712036,2.28,-5.97,-0.25,6.39
16.684157133102417,2.2,-6.25,0.0,6.62
16.693960905075073,2.02,-6.48,0.24,6.79
16.703871965408325,1.91,-6.77,0.42,7.04
16.737229108810425,1.97,-7.2,0.5,7.48
16.740211963653564,2.4,-7.68,0.43,8.05
16.741899013519287,3.0,-8.18,0.28,8.71
16.745033025741577,3.1,-8.39,0.13,8.94
16.75332283973694,2.85,-8.18,0.0,8.66
16.76354479789734,2.65,-7.78,-0.06,8.21
16.77372097969055,2.89,-7.47,-0.05,8.0
16.783768892288208,3.24,-7.19,-0.18,7.88
16.793925046920776,3.59,-6.72,-0.21,7.62
16.803613901138306,3.92,-6.15,0.02,7.29
16.836108922958374,4.18,-5.55,0.19,6.95
16.837912797927856,4.71,-4.93,0.25,6.82
16.839595079421997,5.45,-4.35,0.21,6.97
16.843250036239624,6.06,-3.77,0.16,7.13
16.853347063064575,6.42,-3.17,0.09,7.16
16.86318612098694,6.51,-2.58,-0.07,7.0
16.873178958892822,6.23,-2.06,-0.35,6.57
16.883394956588745,5.57,-1.58,-0.76,5.83
16.893415927886963,4.74,-1.16,-1.27,5.04
16.90374493598938,3.84,-0.78,-1.7,4.27
16.93504500389099,2.92,-0.44,-2.05,3.59
16.938223123550415,2.03,-0.12,-2.38,3.13
16.939844846725464,1.2,0.19,-2.58,2.85
16.943318128585815,0.42,0.48,-2.71,2.78
16.953028917312622,-0.23,0.72,-2.74,2.84
16.962982892990112,-0.76,0.94,-2.69,2.94
16.973294973373413,-1.19,1.12,-2.54,3.02
16.98345398902893,-1.51,1.23,-2.33,3.03
16.993072986602783,-1.74,1.28,-2.11,3.01
17.00326704978943,-1.83,1.31,-1.97,2.99
17.036077976226807,-1.92,1.37,-1.88,3.01
17.03895092010498,-1.78,1.39,-1.86,2.92
17.04057002067566,-1.52,1.47,-1.92,2.85
17.04395604133606,-1.3,1.55,-1.93,2.79
17.052658796310425,-0.95,1.58,-1.78,2.56
17.06300401687622,-0.4,1.54,-1.76,2.37
17.07324194908142,0.04,1.45,-1.77,2.28
17.082916021347046,0.46,1.37,-1.57,2.13
17.093125104904175,0.96,1.37,-1.35,2.14
17.102890968322754,1.33,1.36,-1.23,2.26
17.135519981384277,1.67,1.48,-0.93,2.41
17.137643098831177,2.1,1.8,-0.66,2.84
17.139297008514404,2.63,2.26,-0.52,3.5
17.143189907073975,3.24,2.82,-0.45,4.31
17.152674913406372,3.86,3.24,-0.43,5.05
17.16246199607849,4.43,3.59,-0.63,5.73
17.17258381843567,4.96,3.91,-0.83,6.37
17.182936906814575,5.5,4.31,-1.14,7.07
17.192652940750122,5.9,4.75,-1.57,7.73
17.202631950378418,6.37,5.13,-2.0,8.41
17.23601508140564,6.84,5.36,-2.51,9.04
17.2393479347229,7.23,5.56,-3.04,9.61
17.241044998168945,7.58,5.65,-3.61,10.11
17.244158029556274,7.78,5.6,-4.11,10.42
17.2521870136261,7.95,5.45,-4.48,10.62
17.262616872787476,8.16,5.09,-4.74,10.72
17.272825002670288,8.25,4.51,-4.83,10.57
17.282482862472534,8.07,3.99,-4.72,10.16
17.292503118515015,7.83,3.7,-4.33,9.68
17.302474975585938,7.52,3.46,-3.6,9.02
17.335824012756348,7.06,3.17,-2.7,8.19
17.338021993637085,6.6,2.93,-1.94,7.47
17.339695930480957,6.33,2.83,-1.63,7.12
17.3433039188385,5.98,2.6,-1.58,6.7
17.351964950561523,5.52,2.09,-1.4,6.06
17.36197590827942,5.07,1.48,-0.99,5.37
17.37241005897522,4.87,1.08,-0.67,5.03
17.382251977920532,4.9,0.83,-0.36,4.98
17.392224073410034,5.05,0.67,0.13,5.09
17.402156114578247,5.29,0.57,0.59,5.35
17.43517804145813,5.63,0.4,0.99,5.73
17.437723875045776,5.88,0.24,1.24,6.01
17.439584016799927,5.93,0.09,1.27,6.06
17.443247079849243,5.64,-0.11,1.07,5.74
17.45168399810791,5.16,-0.01,0.94,5.24
17.46208095550537,4.43,0.04,0.77,4.49
17.472157955169678,3.63,-0.06,0.69,3.69
17.481977939605713,2.73,-0.3,0.81,2.86
17.49201989173889,1.76,-0.71,0.83,2.07
17.50204586982727,0.94,-1.05,0.98,1.71
17.53406310081482,0.23,-1.34,1.18,1.8
17.536979913711548,-0.38,-1.69,1.27,2.14
17.538623094558716,-0.88,-2.12,1.2,2.59
17.5419979095459,-1.24,-2.57,1.15,3.07
17.551419973373413,-1.47,-3.0,1.01,3.49
17.561877012252808,-1.55,-3.33,0.84,3.76
17.572044134140015,-1.58,-3.58,0.65,3.96
17.58166193962097,-1.5,-3.77,0.41,4.07
17.591802835464478,-1.32,-3.9,0.15,4.12
17.60201096534729,-1.05,-4.08,-0.16,4.21
17.635438919067383,-0.83,-4.41,-0.48,4.51
17.63813591003418,-0.68,-4.56,-0.67,4.65
17.63984990119934,-0.64,-4.6,-0.74,4.7
17.643187999725342,-0.59,-4.71,-0.82,4.81
17.651193857192993,-0.42,-4.88,-0.93,4.98
17.661621809005737,-0.14,-5.19,-1.0,5.28
17.67142391204834,0.31,-5.66,-1.0,5.75
17.681766986846924,0.93,-6.2,-1.07,6.36
17.691463947296143,1.46,-6.7,-1.12,6.94
17.701433897018433,1.79,-7.05,-1.02,7.34
17.7361581325531,2.04,-7.24,-0.85,7.56
17.739255905151367,2.18,-7.41,-0.73,7.75
17.7411048412323,1.99,-7.58,-0.65,7.86
17.743767976760864,1.61,-7.57,-0.54,7.75
17.750937938690186,1.6,-7.51,-0.47,7.69
17.76093602180481,2.02,-7.64,-0.58,7.92
17.77159810066223,2.39,-7.87,-0.81,8.26
17.781291007995605,2.57,-7.82,-0.95,8.28
17.791125059127808,2.64,-7.45,-0.95,7.96
17.8013699054718,2.91,-7.1,-0.95,7.73
17.834101915359497,3.39,-6.84,-0.96,7.69
17.836929082870483,3.64,-6.41,-0.87,7.42
17.838616132736206,3.97,-5.96,-0.62,7.18
17.842010974884033,4.4,-5.55,-0.42,7.09
17.850703954696655,4.85,-5.11,-0.36,7.05
17.86093306541443,5.4,-4.7,-0.32,7.16
17.871243000030518,5.85,-4.37,-0.28,7.3
17.880974054336548,6.03,-3.93,-0.25,7.2
17.89117407798767,6.08,-3.35,-0.12,6.94
17.900931119918823,5.96,-2.75,-0.13,6.56
17.93300199508667,5.4,-2.3,-0.3,5.87
17.935866117477417,4.57,-1.9,-0.5,4.97
17.937400102615356,3.66,-1.51,-0.89,4.05
17.940459966659546,2.63,-1.13,-1.36,3.16
17.959783792495728,1.57,-0.74,-1.74,2.45
17.962351083755493,0.7,-0.4,-1.97,2.12
17.97020196914673,-0.1,-0.02,-2.28,2.28
17.980994939804077,-0.72,0.22,-2.6,2.7
17.99069380760193,-1.29,0.42,-2.76,3.07
18.000975847244263,-1.77,0.65,-2.6,3.21
18.0320827960968,-1.98,0.77,-2.35,3.16
18.034423112869263,-2.01,0.88,-2.05,3.0
18.036057949066162,-1.83,0.98,-1.84,2.77
18.04043412208557,-1.39,1.01,-1.72,2.43
18.05036997795105,-0.82,0.91,-1.58,1.99
18.060198068618774,-0.28,0.87,-1.56,1.8
18.070478916168213,0.07,0.94,-1.76,1.99
18.080740928649902,0.51,1.13,-1.82,2.2
18.0904757976532,1.08,1.53,-1.73,2.54
18.100558042526245,1.81,1.92,-1.67,3.12
18.13449501991272,2.58,2.45,-1.63,3.91
18.138106107711792,3.15,3.15,-1.57,4.72
18.139979124069214,3.7,3.77,-1.59,5.51
18.14353585243225,4.11,4.32,-1.8,6.22
18.149891138076782,4.35,4.88,-2.06,6.85
18.16036581993103,4.48,5.38,-2.14,7.32
18.17025899887085,4.56,5.7,-2.29,7.65
18.180277109146118,4.72,5.79,-2.41,7.84
18.190441846847534,5.08,5.73,-2.51,8.05
18.200164079666138,5.49,5.67,-2.61,8.31
18.233381986618042,5.8,5.78,-2.55,8.57
18.23564100265503,6.01,5.94,-2.44,8.79
18.237272024154663,6.32,6.06,-2.49,9.1
18.23963499069214,6.7,6.18,-2.69,9.5
18.259686946868896,6.97,6.3,-2.9,9.83
18.26130986213684,7.25,6.18,-3.17,10.04
18.270111799240112,7.93,5.64,-3.6,10.37
18.280062913894653,8.67,4.78,-4.17,10.74
18.290005922317505,9.02,4.18,-4.48,10.9
18.299973011016846,8.63,4.1,-4.36,10.5
18.3313889503479,8.27,4.29,-4.02,10.14
18.333789110183716,8.14,4.26,-3.75,9.92
18.335431814193726,7.89,3.91,-3.42,9.44
18.340487003326416,7.39,3.37,-3.06,8.67
18.349368810653687,6.72,2.75,-2.75,7.76
18.359623908996582,6.27,2.19,-2.38,7.05
18.369794130325317,5.97,1.55,-1.78,6.41
18.379751920700073,5.71,0.89,-1.13,5.88
18.389796018600464,5.49,0.43,-0.42,5.52
18.399722814559937,5.37,0.17,0.26,5.37
18.43354105949402,5.38,0.14,0.71,5.42
18.436291933059692,5.29,0.15,1.05,5.39
18.438331842422485,5.15,-0.03,1.45,5.35
18.440117120742798,5.03,-0.28,1.51,5.25
18.457574129104614,4.89,-0.44,1.4,5.1
18.460174798965454,4.57,-0.29,1.45,4.8
18.469496965408325,3.97,-0.57,1.12,4.16
18.479510068893433,3.17,-0.77,0.82,3.36
18.489677906036377,2.79,-0.39,1.23,3.07
18.499426126480103,2.61,-0.44,1.14,2.88
18.5344660282135,2.14,-0.58,1.0,2.43
18.53686499595642,1.47,-0.65,0.79,1.79
18.538705110549927,0.74,-0.9,0.48,1.26
18.541839838027954,0.03,-1.29,0.4,1.35
18.549147844314575,-0.49,-1.62,0.38,1.73
18.559134006500244,-0.83,-2.02,0.33,2.2
18.569554090499878,-1.0,-2.42,0.32,2.63
18.57927393913269,-1.08,-2.69,0.35,2.91
18.589308977127075,-1.12,-2.99,0.37,3.21
18.599200010299683,-1.08,-3.36,0.32,3.54
18.632857084274292,-1.11,-3.67,0.21,3.83
18.63515591621399,-1.15,-3.93,0.12,4.09
18.63732099533081,-1.08,-4.17,0.01,4.3
18.6391339302063,-0.99,-4.39,-0.18,4.5
18.65923285484314,-0.92,-4.48,-0.33,4.58
18.661010026931763,-0.73,-4.52,-0.44,4.59
18.669103860855103,-0.42,-4.63,-0.51,4.67
18.679056882858276,0.04,-4.91,-0.61,4.94
18.689267873764038,0.61,-5.19,-0.76,5.28
18.6989848613739,1.3,-5.61,-0.85,5.82
18.73276686668396,2.04,-6.12,-0.85,6.5
18.735098123550415,2.63,-6.5,-0.82,7.05
18.737193822860718,2.83,-6.66,-0.64,7.26
18.739065885543823,2.73,-6.74,-0.38,7.28
18.748663902282715,2.43,-6.85,-0.29,7.27
18.758455991744995,2.25,-7.07,-0.24,7.42
18.76838994026184,2.51,-7.41,-0.35,7.83
18.778918981552124,2.86,-7.88,-0.62,8.4
18.78865694999695,3.03,-8.16,-0.75,8.73
18.798683881759644,3.24,-8.19,-0.73,8.83
18.83063292503357,3.75,-8.2,-0.71,9.04
18.833024978637695,4.2,-8.17,-0.68,9.21
18.834712982177734,4.26,-7.86,-0.56,8.95
18.83882999420166,4.06,-7.19,-0.19,8.25
18.848341941833496,4.02,-6.33,0.18,7.5
18.858115911483765,4.26,-5.46,0.25,6.92
18.868036031723022,4.73,-4.56,0.28,6.57
18.878196954727173,5.35,-3.84,0.38,6.59
18.888500928878784,6.06,-3.31,0.35,6.91
18.89839792251587,6.53,-2.86,0.07,7.12
18.930311918258667,6.75,-2.48,-0.2,7.19
18.933154821395874,6.54,-2.14,-0.44,6.89
18.934844970703125,5.82,-1.73,-0.78,6.12
18.93808102607727,4.98,-1.17,-1.13,5.23
18.948328971862793,4.06,-0.63,-1.46,4.36
18.958027124404907,3.04,-0.26,-1.78,3.53
18.968503952026367,2.01,0.05,-2.0,2.83
18.97821307182312,1.1,0.29,-2.0,2.3
18.988255977630615,0.29,0.68,-2.17,2.29
18.99826407432556,-0.44,0.95,-2.31,2.53
19.02941584587097,-1.08,1.04,-2.1,2.58
19.03179907798767,-1.63,1.12,-1.9,2.74
19.033479928970337,-2.01,1.13,-1.83,2.94
19.037755966186523,-2.25,1.07,-1.6,2.96
19.04770588874817,-2.38,0.95,-1.33,2.88
19.057899951934814,-2.27,0.86,-1.13,2.67
19.067677974700928,-1.91,0.79,-1.02,2.3
19.078203916549683,-1.51,0.73,-0.97,1.93
19.088112115859985,-1.04,0.69,-0.84,1.5
19.097881078720093,-0.55,0.69,-0.77,1.17
19.129667043685913,-0.02,0.83,-0.84,1.18
19.13256287574768,0.54,1.09,-0.99,1.56
19.134208917617798,1.04,1.36,-1.16,2.06
19.137346982955933,1.45,1.71,-1.35,2.61
19.147422075271606,1.71,2.12,-1.41,3.06
19.15776801109314,1.85,2.58,-1.47,3.49
19.167781114578247,2.0,3.1,-1.56,4.0
19.177742958068848,2.29,3.6,-1.73,4.6
19.187869787216187,2.71,3.98,-2.04,5.22
19.197563886642456,3.16,4.24,-2.34,5.78
19.23114800453186,3.57,4.57,-2.58,6.34
19.23348307609558,4.05,4.69,-2.47,6.67
19.235141038894653,4.8,4.55,-2.02,6.91
19.23836398124695,5.6,4.77,-1.91,7.6
19.247453927993774,6.95,5.66,-2.46,9.29
19.257280111312866,8.49,6.6,-3.38,11.27
19.267509937286377,9.71,6.91,-4.24,12.64
19.277431964874268,10.41,6.56,-4.92,13.25
19.28761100769043,10.43,6.06,-5.58,13.29
19.29740595817566,9.99,5.61,-5.91,12.89
19.330825090408325,9.54,5.34,-5.81,12.38
19.333101987838745,9.4,5.12,-5.49,12.02
19.33478093147278,9.15,4.74,-4.8,11.36
19.339054822921753,8.68,4.25,-3.48,10.27
19.346986055374146,8.21,3.55,-2.29,9.23
19.357228994369507,7.6,2.68,-1.55,8.2
19.367187976837158,6.94,1.82,-0.84,7.22
19.37755513191223,6.39,1.11,-0.14,6.48
19.387107133865356,5.87,0.51,0.35,5.9
19.397305011749268,5.4,0.1,0.68,5.44
19.429742097854614,5.1,-0.14,0.94,5.18
19.432531118392944,4.78,-0.2,1.13,4.91
19.434191942214966,4.5,-0.15,1.24,4.67
19.437219858169556,4.37,-0.15,1.31,4.56
19.44671082496643,4.21,-0.07,1.22,4.38
19.456645965576172,3.91,0.15,1.1,4.06
19.46710705757141,3.5,0.4,0.97,3.65
19.477075815200806,3.03,0.6,0.87,3.2
19.48701310157776,2.55,0.72,0.76,2.75
19.49691390991211,1.97,0.66,0.74,2.2
19.531279802322388,1.36,0.88,0.66,1.74
19.533573865890503,0.75,0.96,0.65,1.38
19.535259008407593,0.33,0.82,0.6,1.06
19.539463996887207,-0.14,0.54,0.53,0.76
19.546449899673462,-0.52,0.2,0.55,0.78
19.558579921722412,-0.84,-0.02,0.64,1.05
19.566787004470825,-1.09,-0.26,0.78,1.36
19.57671284675598,-1.19,-0.6,0.87,1.59
19.586992979049683,-1.14,-1.01,0.87,1.75
19.596760034561157,-1.03,-1.42,0.81,1.93
19.62877583503723,-1.0,-1.79,0.76,2.18
19.631691932678223,-1.07,-2.14,0.69,2.49
19.633397817611694,-1.2,-2.53,0.6,2.86
19.636107921600342,-1.33,-2.93,0.54,3.26
19.646437883377075,-1.48,-3.29,0.66,3.66
19.656410932540894,-1.45,-3.56,0.76,3.91
19.666531801223755,-1.33,-3.76,0.71,4.05
19.676480054855347,-1.05,-3.98,0.82,4.19
19.686704874038696,-0.38,-4.31,0.89,4.41
19.696542978286743,0.4,-4.71,0.65,4.77
19.728673934936523,1.09,-5.01,0.44,5.14
19.73151183128357,1.64,-5.26,0.24,5.51
19.733200788497925,1.81,-5.51,0.14,5.8
19.735883951187134,1.74,-5.63,0.1,5.89
19.74600100517273,1.71,-5.81,0.16,6.05
19.75602889060974,1.54,-5.98,0.16,6.17
19.766035795211792,1.57,-6.2,0.14,6.39
19.776484966278076,1.97,-6.43,-0.02,6.72
19.786290884017944,2.84,-6.73,-0.21,7.3
19.796368837356567,3.66,-7.09,-0.4,7.98
19.8278169631958,4.1,-7.24,-0.68,8.34
19.830086946487427,4.04,-6.98,-0.83,8.1
19.831720113754272,3.96,-6.61,-0.8,7.74
19.83576512336731,4.17,-6.38,-0.87,7.67
19.845961809158325,4.42,-6.05,-0.93,7.55
19.855993032455444,4.45,-5.46,-0.9,7.1
19.865662813186646,4.48,-4.78,-0.75,6.59
19.876189947128296,4.78,-4.26,-0.57,6.42
19.885989904403687,5.21,-3.92,-0.57,6.54
19.89590811729431,5.66,-3.73,-0.68,6.81
19.92783808708191,6.0,-3.5,-0.73,6.98
19.930269956588745,6.16,-3.2,-0.85,6.99
19.931917905807495,5.97,-3.09,-1.09,6.81
19.935499906539917,5.39,-2.95,-1.4,6.3
19.945401906967163,4.72,-2.79,-1.74,5.75
19.95559597015381,3.98,-2.49,-1.99,5.09
19.965387105941772,3.07,-2.11,-2.12,4.28
19.975641012191772,2.06,-1.73,-2.19,3.46
19.985761880874634,1.08,-1.23,-2.2,2.74
19.995657920837402,0.21,-0.74,-2.06,2.19
20.027108907699585,-0.4,-0.31,-1.88,1.94
20.029485940933228,-0.82,0.01,-1.68,1.86
20.031094789505005,-1.1,0.21,-1.43,1.81
20.035189867019653,-1.35,0.42,-1.26,1.89
20.045195817947388,-1.58,0.7,-1.05,2.02
20.055429935455322,-1.62,0.81,-0.88,2.01
20.065263032913208,-1.53,0.79,-0.93,1.95
20.075483083724976,-1.4,0.78,-0.88,1.82
20.08554482460022,-1.25,0.82,-0.87,1.72
20.0954167842865,-1.13,0.98,-0.88,1.73
20.128123998641968,-0.77,1.17,-0.78,1.6
20.13094997406006,-0.22,1.35,-0.85,1.61
20.13261890411377,0.25,1.63,-0.95,1.9
20.13577389717102,0.65,1.97,-0.98,2.29
20.144967794418335,1.1,2.22,-0.99,2.66
20.155615091323853,1.56,2.4,-1.04,3.04
20.16538095474243,1.87,2.68,-1.12,3.45
20.1754949092865,1.95,3.03,-1.03,3.74
20.1852810382843,1.97,3.46,-0.93,4.08
20.195173978805542,2.14,3.88,-0.85,4.51
20.228055000305176,2.63,4.08,-0.81,4.92
20.230879068374634,3.3,4.22,-0.87,5.42
20.23256492614746,3.96,4.44,-0.98,6.02
20.235188961029053,4.44,4.76,-1.09,6.59
20.244818925857544,4.88,5.05,-1.14,7.11
20.255304098129272,5.35,5.37,-1.29,7.68
20.265110969543457,5.91,5.66,-1.51,8.32
20.274975061416626,6.59,5.74,-1.78,8.91
20.28526997566223,7.29,5.73,-2.36,9.56
20.294955015182495,8.11,5.41,-3.01,10.2
20.328020811080933,8.98,4.92,-3.63,10.86
20.330372095108032,9.36,4.6,-4.33,11.29
20.332062005996704,9.37,4.62,-4.67,11.44
20.335286855697632,9.24,4.91,-4.72,11.47
20.34442901611328,8.88,5.1,-4.53,11.19
20.354429960250854,8.51,4.94,-4.04,10.63
20.365095853805542,8.12,4.41,-3.39,9.84
20.37474799156189,7.74,3.66,-2.71,8.98
20.384977102279663,7.44,2.82,-2.05,8.21
20.394876956939697,7.27,2.06,-1.53,7.7
20.426964044570923,7.18,1.35,-1.02,7.37
20.42987084388733,7.19,0.85,-0.53,7.25
20.431535959243774,7.23,0.75,-0.14,7.27
20.43480610847473,7.31,0.9,0.08,7.36
20.444458961486816,7.21,1.04,0.26,7.28
20.45426106452942,6.88,1.08,0.52,6.98
20.46499991416931,6.59,1.04,0.46,6.68
20.474725008010864,6.1,1.02,0.16,6.18
20.484543085098267,5.3,0.95,0.12,5.38
20.49442195892334,4.43,0.38,0.39,4.46
20.52701997756958,3.76,0.31,0.43,3.79
20.52985692024231,3.25,0.61,0.46,3.33
20.531476974487305,2.78,0.65,0.33,2.87
20.53403091430664,2.21,0.33,0.2,2.24
20.543989896774292,1.67,-0.18,0.13,1.68
20.553966999053955,1.13,-0.61,0.3,1.31
20.563935041427612,0.63,-0.97,0.37,1.21
20.574243783950806,0.28,-1.32,0.48,1.43
20.58449912071228,0.04,-1.65,0.44,1.7
20.594157934188843,0.0,-2.07,0.41,2.11
20.627193927764893,0.05,-2.46,0.35,2.48
20.62903904914856,-0.04,-2.8,0.18,2.8
20.63069987297058,-0.12,-3.18,-0.02,3.18
20.63383412361145,-0.22,-3.54,-0.21,3.55
20.64367413520813,-0.4,-3.87,-0.26,3.89
20.653671979904175,-0.53,-4.17,-0.32,4.21
20.664346933364868,-0.59,-4.51,-0.42,4.56
20.673962831497192,-0.43,-4.83,-0.39,4.86
20.68384599685669,-0.33,-5.17,-0.39,5.19
20.69414496421814,-0.31,-5.49,-0.33,5.5
20.726099967956543,-0.24,-5.7,-0.33,5.71
20.727803945541382,-0.08,-5.98,-0.47,5.99
20.729617834091187,0.04,-6.44,-0.59,6.46
20.733394861221313,0.11,-6.85,-0.5,6.86
20.743802785873413,0.41,-7.21,-0.56,7.24
20.753443956375122,0.55,-7.47,-0.83,7.53
20.76352596282959,0.57,-7.66,-0.82,7.72
20.773947954177856,0.61,-7.82,-0.66,7.87
20.783756017684937,0.42,-7.94,-0.7,7.98
20.79387092590332,0.31,-7.96,-0.79,8.0
20.82610583305359,0.66,-8.08,-0.8,8.14
20.827922105789185,1.17,-8.25,-0.77,8.36
20.82970690727234,1.62,-8.29,-0.83,8.48
20.833266019821167,2.03,-7.97,-0.94,8.27
20.84334683418274,2.45,-7.53,-1.05,7.98
20.85344386100769,2.87,-7.07,-1.12,7.71
20.863495111465454,3.03,-6.68,-1.23,7.43
20.873350858688354,3.05,-6.23,-0.99,7.0
20.883665800094604,3.09,-5.76,-0.6,6.56
20.893435955047607,3.26,-5.39,-0.36,6.3
20.924811124801636,3.63,-5.18,-0.15,6.32
20.926580905914307,4.04,-5.08,0.09,6.49
20.928219079971313,4.46,-4.96,0.35,6.67
20.93306612968445,4.82,-4.67,0.5,6.72
20.942972898483276,5.1,-4.31,0.7,6.71
20.952863931655884,5.23,-3.95,0.77,6.59
20.963231801986694,5.15,-3.41,0.49,6.19
20.973586797714233,4.96,-2.73,0.04,5.66
20.983586072921753,4.49,-2.07,-0.5,4.96
20.993180990219116,3.6,-1.46,-1.01,4.01
21.023921012878418,2.62,-0.78,-1.42,3.08
21.02571201324463,1.68,-0.1,-1.76,2.43
21.027345895767212,0.93,0.48,-1.93,2.19
21.032692909240723,0.56,0.78,-1.98,2.2
21.042836904525757,0.33,0.95,-2.0,2.23
21.052674055099487,0.21,1.21,-2.01,2.35
21.062958002090454,-0.03,1.48,-1.87,2.38
21.072785139083862,-0.29,1.6,-1.66,2.32
21.08291983604431,-0.5,1.66,-1.61,2.36
21.093179941177368,-0.55,1.75,-1.64,2.46
21.124022960662842,-0.64,1.78,-1.58,2.46
21.125550031661987,-0.64,1.82,-1.32,2.33
21.127099990844727,-0.43,1.86,-1.23,2.27
21.132368803024292,-0.02,1.96,-1.15,2.27
21.14246392250061,0.42,2.14,-1.16,2.47
21.152518033981323,0.79,2.34,-1.09,2.69
21.162593126296997,1.04,2.64,-0.91,2.97
21.172919988632202,1.27,2.97,-0.81,3.33
21.182760000228882,1.42,3.24,-0.76,3.61
21.193004846572876,1.5,3.61,-0.59,3.95
21.224630117416382,1.72,4.02,-0.4,4.39
21.226414918899536,2.13,4.23,-0.23,4.74
21.228204011917114,2.43,4.39,0.0,5.01
21.232127904891968,3.02,4.48,0.33,5.41
21.24226999282837,3.66,4.46,0.58,5.79
21.252343893051147,4.19,4.55,0.79,6.23
21.262797117233276,4.8,4.79,1.04,6.86
21.272547006607056,5.55,4.97,1.28,7.55
21.282461881637573,6.38,5.18,1.43,8.34
21.29263997077942,7.31,5.41,1.29,9.18
21.324984788894653,8.31,5.49,1.03,10.01
21.326764822006226,9.38,5.42,0.82,10.86
21.32858395576477,10.35,5.19,0.37,11.58
21.332186937332153,11.04,5.1,-0.31,12.16
21.34211802482605,11.37,5.18,-0.8,12.51
21.35198712348938,11.49,5.14,-0.89,12.61
21.361992120742798,11.4,4.78,-0.91,12.39
21.372565984725952,11.22,4.22,-0.85,12.01
21.3822979927063,10.72,3.72,-0.69,11.36
21.39226984977722,9.77,3.45,-0.24,10.36
21.42473793029785,8.58,3.23,0.17,9.16
21.426503896713257,7.37,2.74,0.5,7.87
21.428230047225952,6.42,2.04,0.75,6.77
21.431854009628296,5.82,1.34,0.82,6.02
21.441610097885132,5.46,0.66,0.85,5.56
21.451884031295776,5.22,0.07,0.95,5.3
21.46236300468445,5.07,-0.26,1.03,5.18
21.47217297554016,4.93,-0.39,1.11,5.06
21.48222279548645,4.76,-0.4,1.1,4.9
21.49195694923401,4.53,-0.39,1.02,4.65
21.523796796798706,4.31,-0.4,0.94,4.42
21.52557110786438,3.85,-0.27,0.62,3.9
21.527454137802124,3.4,-0.26,0.33,3.42
21.5314199924469,2.7,-0.16,0.07,2.7
21.541468858718872,2.51,-0.21,-0.13,2.52
21.551368951797485,2.03,0.1,-0.25,2.04
21.56209397315979,1.34,-0.29,0.04,1.37
21.57196593284607,0.96,-0.73,0.16,1.21
21.581737995147705,0.48,-1.15,0.22,1.26
21.591843843460083,0.09,-1.47,0.45,1.53
21.62418484687805,-0.29,-1.85,0.67,1.98
21.625993013381958,-0.56,-2.27,0.77,2.46
21.627676963806152,-0.9,-2.69,0.75,2.93
21.63128399848938,-1.27,-3.13,0.74,3.45
21.641151905059814,-1.57,-3.59,0.69,3.97
21.651429891586304,-1.75,-3.96,0.59,4.36
21.66125512123108,-1.83,-4.29,0.56,4.69
21.671852827072144,-1.81,-4.63,0.62,5.0
21.681657075881958,-1.69,-4.96,0.64,5.27
21.691459894180298,-1.58,-5.3,0.5,5.55
21.723572969436646,-1.43,-5.59,0.25,5.77
21.725414037704468,-1.42,-5.73,0.07,5.9
21.727142095565796,-1.48,-5.67,0.03,5.86
21.730860948562622,-1.57,-5.59,0.03,5.8
21.740959882736206,-1.45,-5.7,0.09,5.88
21.75096893310547,-0.82,-6.03,0.13,6.08
21.761245012283325,-0.18,-6.56,0.16,6.56
21.77125597000122,0.52,-7.03,0.18,7.05
21.78127694129944,1.36,-7.37,0.07,7.49
21.7913978099823,1.69,-7.31,-0.02,7.5
21.82384991645813,1.46,-6.85,-0.04,7.0
21.825700998306274,1.67,-5.54,0.08,5.78
21.827335119247437,1.07,-6.46,0.75,6.59
21.831100940704346,0.63,-7.65,0.51,7.69
21.84102511405945,1.76,-6.14,-0.08,6.38
21.85067892074585,1.67,-6.72,-0.26,6.92
21.86076807975769,1.98,-6.86,-0.46,7.15
21.87095808982849,2.04,-6.46,-0.54,6.79
21.88105607032776,1.84,-5.9,-0.58,6.2
21.891041040420532,1.97,-5.07,-0.64,5.47
21.922608137130737,2.49,-4.48,-0.75,5.18
21.92443299293518,3.19,-4.2,-0.97,5.36
21.92605495452881,3.92,-4.07,-1.14,5.76
21.930476903915405,4.59,-3.97,-1.12,6.17
21.94056010246277,5.07,-3.79,-1.05,6.41
21.95060896873474,5.57,-3.49,-1.05,6.65
21.960628986358643,5.93,-3.0,-0.77,6.69
21.9703049659729,6.12,-2.38,-0.38,6.57
21.981151819229126,5.96,-1.76,-0.1,6.21
21.99092411994934,5.48,-1.17,0.1,5.6
22.02146601676941,4.88,-0.7,0.15,4.93
22.02333378791809,4.24,-0.33,0.07,4.25
22.024990797042847,3.49,0.06,-0.17,3.49
22.03028392791748,2.58,0.52,-0.5,2.67
22.04031991958618,1.83,0.86,-0.81,2.17
22.050094842910767,1.32,0.98,-1.04,1.94
22.060128927230835,0.84,1.09,-1.32,1.9
22.070224046707153,0.14,1.24,-1.55,1.98
22.080405950546265,-0.31,1.29,-1.63,2.1
22.0906879901886,-0.63,1.2,-1.71,2.18
22.119781017303467,-1.07,1.17,-1.63,2.27
22.121515035629272,-1.32,1.19,-1.5,2.32
22.123560905456543,-1.41,1.21,-1.35,2.29
22.130093812942505,-1.27,1.24,-1.2,2.14
22.139949083328247,-0.84,1.26,-1.14,1.89
22.149943113327026,-0.39,1.31,-1.25,1.85
22.160032987594604,-0.11,1.36,-1.25,1.85
22.16980791091919,0.17,1.53,-1.1,1.89
22.179824113845825,0.7,1.93,-0.92,2.24
22.19038987159729,0.74,1.93,-1.09,2.33
22.220372915267944,1.68,1.49,-0.64,2.33
22.222039937973022,2.23,2.46,-0.88,3.43
22.223695993423462,2.39,2.72,-0.56,3.66
22.229771852493286,3.09,3.15,-0.37,4.42
22.239902019500732,3.48,3.52,-0.26,4.95
22.249934911727905,3.79,3.86,-0.16,5.41
22.25961184501648,4.04,4.2,0.01,5.82
22.269726991653442,4.45,4.43,0.2,6.28
22.280277967453003,5.04,4.52,0.24,6.77
22.28988480567932,5.59,4.56,0.14,7.21
22.322130918502808,5.99,4.63,0.11,7.57
22.32392692565918,6.2,4.83,0.14,7.86
22.325562000274658,6.39,5.08,0.12,8.16
22.32956290245056,6.75,5.26,-0.18,8.55
22.33958601951599,7.34,5.24,-0.64,9.04
22.34935998916626,7.99,4.96,-1.03,9.46
22.35969591140747,8.58,4.41,-1.36,9.74
22.369805097579956,8.92,3.92,-1.64,9.88
22.379735946655273,8.93,3.54,-1.91,9.79
22.390002012252808,8.86,3.19,-2.05,9.63
22.421199083328247,8.72,2.86,-2.03,9.39
22.42304301261902,8.39,2.55,-1.76,8.94
22.424678087234497,7.98,2.16,-1.25,8.36
22.429160833358765,7.6,1.75,-0.55,7.81
22.43941903114319,7.1,1.45,0.13,7.24
22.44911503791809,6.56,1.13,0.65,6.68
22.459118127822876,6.17,0.78,0.97,6.29
22.469486951828003,5.82,0.53,1.29,5.98
22.479774951934814,5.54,0.39,1.55,5.76
22.489493131637573,5.31,0.22,1.62,5.55
22.521589040756226,5.18,0.12,1.65,5.43
22.523442029953003,5.17,0.06,1.66,5.43
22.52529001235962,5.11,0.14,1.52,5.33
22.529016971588135,4.93,0.32,1.32,5.11
22.53912901878357,4.6,0.42,1.06,4.73
22.54899001121521,3.94,0.35,0.85,4.04
22.5591938495636,3.03,0.09,0.72,3.11
22.56936001777649,2.34,0.23,0.52,2.4
22.579375982284546,1.42,0.46,0.14,1.49
22.58946204185486,0.63,0.56,0.01,0.84
22.620678901672363,0.03,0.64,-0.08,0.64
22.622458934783936,-0.5,0.46,-0.1,0.68
22.624071836471558,-0.92,-0.01,-0.14,0.93
22.628816843032837,-1.19,-0.34,-0.18,1.25
22.638992071151733,-1.34,-0.66,-0.24,1.51
22.649035930633545,-1.46,-0.98,-0.3,1.78
22.658653020858765,-1.67,-1.3,-0.5,2.17
22.66896080970764,-1.82,-1.75,-0.52,2.57
22.6791570186615,-1.85,-2.16,-0.52,2.89
22.6890709400177,-1.84,-2.42,-0.58,3.09
22.719885110855103,-1.83,-2.54,-0.57,3.18
22.721642017364502,-1.69,-2.66,-0.5,3.19
22.72353482246399,-1.47,-2.79,-0.36,3.17
22.728649854660034,-1.24,-2.89,-0.2,3.15
22.738571882247925,-0.93,-3.04,0.05,3.17
22.74859595298767,-0.54,-3.19,0.25,3.24
22.758783102035522,-0.1,-3.43,0.32,3.44
22.768404006958008,0.39,-3.74,0.4,3.78
22.778746843338013,1.01,-4.11,0.57,4.27
22.7891628742218,1.72,-4.57,0.71,4.93
22.820425987243652,2.51,-5.04,0.85,5.69
22.82224678993225,3.17,-5.42,0.86,6.33
22.823909997940063,3.34,-5.7,0.76,6.65
22.82831311225891,3.1,-5.93,0.7,6.72
22.83825397491455,2.57,-6.2,0.61,6.73
22.848625898361206,2.27,-6.59,0.43,6.98
22.858163118362427,2.47,-7.13,0.28,7.55
22.868557929992676,2.8,-7.57,0.21,8.07
22.878844022750854,2.95,-7.68,0.2,8.22
22.88849902153015,2.94,-7.27,0.22,7.84
22.9195339679718,3.19,-6.61,0.19,7.34
22.921292066574097,3.68,-5.93,-0.03,6.97
22.923164129257202,3.74,-5.23,-0.42,6.44
22.92804193496704,3.47,-4.39,-0.65,5.63
22.93816900253296,3.4,-3.68,-0.79,5.07
22.947919130325317,3.69,-3.24,-0.95,5.0
22.9580237865448,4.32,-3.08,-0.98,5.39
22.967921018600464,5.03,-3.0,-0.82,5.91
22.978254079818726,5.68,-2.88,-0.62,6.39
22.988595008850098,6.25,-2.68,-0.47,6.81
23.019564867019653,6.63,-2.48,-0.55,7.09
23.022835969924927,6.44,-2.22,-0.77,6.85
23.024488925933838,5.66,-1.89,-1.0,6.05
23.027847051620483,4.6,-1.6,-1.1,4.99
23.03785490989685,3.53,-1.46,-1.18,3.99
23.047852993011475,2.41,-1.31,-1.36,3.06
23.05779790878296,1.33,-1.01,-1.55,2.27
23.06833004951477,0.44,-0.59,-1.61,1.77
23.07819104194641,-0.24,-0.18,-1.58,1.6
23.08811593055725,-0.86,0.12,-1.48,1.71
23.121343851089478,-1.35,0.37,-1.46,2.02
23.124336004257202,-1.68,0.61,-1.5,2.33
23.125993967056274,-1.92,0.88,-1.58,2.63
23.128291845321655,-2.18,1.06,-1.54,2.87
23.137434005737305,-2.37,1.14,-1.5,3.02
23.147866010665894,-2.45,1.24,-1.45,3.1
23.157986879348755,-2.38,1.31,-1.42,3.06
23.16789412498474,-2.17,1.39,-1.41,2.93
23.177799940109253,-1.89,1.49,-1.36,2.76
23.187822103500366,-1.59,1.56,-1.25,2.55
23.221399068832397,-1.22,1.62,-1.18,2.34
23.223222017288208,-0.77,1.68,-1.18,2.19
23.224952936172485,-0.38,1.75,-1.1,2.1
23.228351831436157,0.12,1.85,-0.99,2.1
23.237117052078247,0.64,1.95,-0.92,2.24
23.24759292602539,1.06,2.11,-0.87,2.51
23.25779390335083,1.42,2.39,-0.8,2.89
23.267482042312622,1.79,2.83,-0.69,3.41
23.277634859085083,2.37,3.2,-0.57,4.02
23.28749108314514,3.21,3.45,-0.67,4.75
23.31966280937195,3.93,3.78,-0.91,5.52
23.32142186164856,4.52,4.15,-1.02,6.22
23.32311701774597,5.13,4.58,-1.07,6.95
23.326977968215942,5.89,5.04,-1.22,7.84
23.33701491355896,6.72,5.39,-1.4,8.72
23.346938848495483,7.7,5.57,-1.49,9.61
23.357424020767212,8.91,5.46,-1.54,10.56
23.367328882217407,10.25,5.11,-1.68,11.57
23.3773090839386,11.32,4.89,-1.94,12.48
23.38747000694275,11.99,4.91,-2.28,13.15
23.420068979263306,12.47,5.04,-2.53,13.68
23.423310041427612,12.53,5.08,-2.6,13.76
23.425080060958862,11.95,5.03,-2.51,13.2
23.428303956985474,10.89,4.62,-2.19,12.03
23.43670892715454,9.69,3.87,-1.65,10.56
23.447000980377197,8.5,2.93,-1.24,9.07
23.456941843032837,7.56,2.01,-0.82,7.86
23.466949939727783,6.9,1.29,-0.53,7.03
23.477153062820435,6.41,0.68,-0.24,6.45
23.486923933029175,6.02,0.26,0.1,6.02
23.51916003227234,5.71,0.05,0.43,5.72
23.521633863449097,5.43,-0.03,0.78,5.48
23.523279905319214,5.09,-0.13,1.17,5.22
23.526427030563354,4.8,-0.35,1.42,5.01
23.536438941955566,4.43,-0.46,1.45,4.68
23.54639196395874,3.87,-0.33,1.18,4.05
23.557016134262085,3.15,-0.22,0.81,3.25
23.566751956939697,1.91,-0.34,0.28,1.96
23.576820135116577,0.22,-0.55,-0.4,0.71
23.586654901504517,-0.31,-0.28,-0.79,0.89
23.618937969207764,-0.17,-0.1,-0.44,0.48
23.621733903884888,-0.35,-0.02,0.24,0.42
23.623307943344116,-0.84,-0.02,0.23,0.87
23.626292943954468,-1.41,0.01,0.13,1.41
23.636368989944458,-1.77,0.1,0.06,1.77
23.646085023880005,-1.91,0.1,-0.03,1.91
23.656561136245728,-2.01,-0.24,-0.2,2.03
23.66643500328064,-2.03,-0.6,-0.41,2.15
23.676480054855347,-1.92,-1.02,-0.6,2.25
23.68659806251526,-1.72,-1.44,-0.76,2.36
23.719398975372314,-1.55,-1.8,-0.84,2.51
23.721955060958862,-1.27,-2.11,-0.83,2.59
23.72359299659729,-0.96,-2.44,-0.79,2.73
23.726895093917847,-0.68,-2.68,-0.83,2.88
23.736375093460083,-0.32,-2.89,-0.91,3.04
23.7464919090271,-0.13,-3.12,-0.86,3.23
23.756513833999634,0.04,-3.07,-0.96,3.21
23.766220808029175,0.69,-3.28,-0.85,3.45
23.776221990585327,1.07,-3.66,-0.47,3.84
23.786271810531616,1.52,-4.23,-0.27,4.5
23.81962299346924,2.12,-5.02,-0.12,5.45
23.821842908859253,2.55,-5.76,0.01,6.29
23.823590993881226,2.76,-6.41,0.25,6.98
23.82666301727295,2.74,-6.86,0.55,7.4
23.835861921310425,2.51,-7.1,0.77,7.56
23.84568190574646,2.35,-7.38,0.94,7.8
23.856246948242188,2.64,-7.91,1.08,8.4
23.865896940231323,2.89,-8.56,0.95,9.08
23.8759868144989,2.62,-8.98,0.65,9.37
23.88616108894348,2.14,-8.82,0.61,9.09
23.91950297355652,2.11,-8.31,0.7,8.6
23.92176604270935,2.76,-8.04,0.52,8.51
23.923475980758667,3.51,-7.81,0.22,8.56
23.926708936691284,3.88,-7.47,0.21,8.42
23.93567204475403,3.95,-6.85,0.47,7.92
23.945462942123413,4.37,-6.03,0.52,7.46
23.95564579963684,4.84,-5.32,0.42,7.2
23.965786933898926,5.39,-4.6,0.37,7.09
23.975757837295532,5.91,-3.98,0.21,7.12
23.9857017993927,6.16,-3.36,-0.05,7.01
24.018397092819214,6.07,-2.73,-0.49,6.67
24.02242684364319,5.61,-2.33,-0.98,6.15
24.02406096458435,4.81,-2.1,-1.4,5.43
24.02739191055298,3.82,-1.83,-1.78,4.59
24.035207986831665,2.79,-1.6,-2.02,3.79
24.045292139053345,1.88,-1.46,-2.08,3.16
24.05559492111206,1.16,-1.31,-2.19,2.8
24.065643072128296,0.42,-1.01,-2.14,2.4
24.075700044631958,-0.31,-0.64,-1.95,2.07
24.085521936416626,-0.9,-0.33,-1.73,1.97
24.117573022842407,-1.37,-0.16,-1.52,2.05
24.120490789413452,-1.74,0.06,-1.4,2.23
24.122126817703247,-1.96,0.38,-1.46,2.47
24.124945878982544,-1.99,0.57,-1.41,2.5
24.142868995666504,-1.85,0.71,-1.18,2.3
24.14494013786316,-1.56,0.85,-1.09,2.08
24.155630826950073,-1.19,1.01,-1.01,1.85
24.165208101272583,-0.64,1.14,-0.93,1.6
24.17532992362976,-0.05,1.28,-0.85,1.53
24.1854829788208,0.57,1.39,-0.82,1.71
24.21818709373474,1.3,1.45,-0.78,2.09
24.221715927124023,2.05,1.57,-0.87,2.72
24.223315000534058,2.68,1.8,-0.97,3.37
24.22657084465027,3.21,2.12,-1.02,3.97
24.234627962112427,3.52,2.52,-1.05,4.45
24.245223999023438,3.62,3.03,-1.12,4.85
24.25530982017517,3.59,3.62,-1.18,5.23
24.26496195793152,3.52,4.04,-1.18,5.48
24.275201082229614,3.66,4.28,-1.24,5.76
24.28510093688965,4.07,4.5,-1.26,6.19
24.318386793136597,4.69,4.69,-1.29,6.75
24.32214593887329,5.2,4.91,-1.39,7.28
24.32397699356079,5.54,5.29,-1.38,7.78
24.326942920684814,5.78,5.77,-1.41,8.28
24.334505796432495,5.94,6.24,-1.52,8.74
24.344890832901,6.26,6.54,-1.62,9.19
24.3547260761261,6.71,6.61,-1.95,9.61
24.36498188972473,7.6,6.47,-2.41,10.26
24.374778985977173,8.69,6.03,-2.87,10.95
24.38476300239563,9.34,5.53,-3.37,11.36
24.418526887893677,9.58,5.27,-3.73,11.55
24.420953035354614,9.41,5.14,-3.74,11.35
24.422624826431274,9.02,4.76,-3.4,10.75
24.42608094215393,8.43,4.15,-2.93,9.84
24.43426012992859,7.71,3.57,-2.25,8.78
24.444506883621216,7.03,3.12,-1.23,7.78
24.454593896865845,6.34,2.6,-0.28,6.85
24.46449112892151,5.76,2.06,0.41,6.13
24.474764108657837,5.52,1.59,0.85,5.8
24.484436988830566,5.53,1.26,1.15,5.78
24.516479969024658,5.66,1.0,1.34,5.9
24.519468069076538,5.85,0.91,1.54,6.11
24.52108883857727,5.99,1.0,1.63,6.28
24.524027109146118,5.88,1.11,1.64,6.2
24.543111085891724,5.59,1.25,1.56,5.93
24.544965982437134,5.05,1.19,1.36,5.36
24.554271936416626,4.13,0.43,0.92,4.25
24.564395904541016,3.29,0.46,0.75,3.4
24.574156045913696,2.95,0.87,0.32,3.09
24.58425784111023,2.47,0.9,0.5,2.67
24.616763830184937,1.99,0.86,0.56,2.23
24.619622945785522,1.54,0.57,0.59,1.74
24.621177911758423,0.82,0.57,0.43,1.08
24.623714923858643,0.25,0.46,0.4,0.65
24.64315104484558,-0.19,0.24,0.43,0.52
24.64476990699768,-0.6,0.06,0.45,0.75
24.654064893722534,-0.95,-0.21,0.54,1.11
24.66398787498474,-1.25,-0.76,0.49,1.54
24.674240827560425,-1.36,-1.22,0.57,1.91
24.68397092819214,-1.42,-1.63,0.52,2.22
24.71714496612549,-1.42,-2.02,0.54,2.52
24.719602823257446,-1.33,-2.39,0.49,2.77
24.721246004104614,-1.16,-2.69,0.41,2.95
24.723501920700073,-1.04,-3.07,0.22,3.24
24.7441508769989,-1.05,-3.4,0.09,3.55
24.746501922607422,-1.07,-3.53,0.06,3.68
24.753402948379517,-1.05,-3.63,-0.04,3.77
24.763783931732178,-0.96,-3.8,-0.07,3.92
24.77402091026306,-0.73,-3.97,0.1,4.03
24.783729791641235,-0.18,-4.24,0.23,4.25
24.8145649433136,0.5,-4.55,0.27,4.58
24.817095041275024,1.2,-4.89,0.26,5.04
24.81873106956482,1.75,-5.24,0.19,5.52
24.823435068130493,2.06,-5.59,0.22,5.96
24.83355212211609,2.35,-5.95,0.28,6.4
24.843199014663696,2.5,-6.29,0.36,6.77
24.853672981262207,2.6,-6.58,0.41,7.08
24.86381196975708,2.9,-6.85,0.33,7.44
24.873430967330933,3.32,-7.31,0.16,8.03
24.883696794509888,3.3,-7.71,-0.05,8.38
24.91606879234314,2.88,-7.71,-0.16,8.23
24.918812036514282,2.77,-7.46,-0.14,7.95
24.920432806015015,3.32,-7.44,-0.11,8.14
24.923145055770874,4.08,-7.54,-0.22,8.57
24.932963132858276,4.51,-7.33,-0.26,8.61
24.943310976028442,4.54,-6.67,-0.06,8.06
24.953325033187866,4.66,-5.91,0.15,7.52
24.96325182914734,4.9,-5.27,0.19,7.19
24.973739862442017,5.17,-4.57,0.16,6.9
24.983225107192993,5.47,-3.96,0.07,6.75
25.01586413383484,5.83,-3.49,-0.13,6.79
25.018229961395264,6.03,-3.1,-0.36,6.78
25.019896984100342,5.85,-2.81,-0.62,6.51
25.022762060165405,5.28,-2.52,-0.91,5.92
25.032839059829712,4.41,-2.19,-1.19,5.06
25.04265809059143,3.52,-1.84,-1.5,4.24
25.053305864334106,2.69,-1.53,-1.77,3.56
25.063098907470703,2.01,-1.22,-1.99,3.08
25.07339310646057,1.47,-0.97,-2.13,2.76
25.082902908325195,0.88,-0.77,-2.05,2.36
25.11522078514099,0.31,-0.59,-1.77,1.89
25.118107080459595,-0.26,-0.34,-1.57,1.62
25.119810819625854,-0.67,-0.15,-1.39,1.55
25.12254786491394,-0.91,-0.07,-1.29,1.58
25.132569074630737,-1.15,-0.03,-1.32,1.75
25.142401933670044,-1.31,0.01,-1.37,1.89
25.153001070022583,-1.48,-0.03,-1.3,1.97
25.16269087791443,-1.65,-0.01,-1.27,2.08
25.172716856002808,-1.7,0.13,-1.27,2.12
25.18294095993042,-1.59,0.36,-1.3,2.08
25.216346979141235,-1.25,0.63,-1.37,1.95
25.2187819480896,-0.94,0.99,-1.38,1.94
25.220422983169556,-0.55,1.51,-1.49,2.19
25.223018884658813,-0.08,2.02,-1.58,2.56
25.232392072677612,0.47,2.51,-1.7,3.06
25.242203950881958,1.03,3.06,-1.8,3.69
25.25258994102478,1.67,3.63,-1.86,4.4
25.26274085044861,2.26,4.2,-1.9,5.13
25.272519826889038,2.6,4.72,-1.92,5.72
25.282481908798218,2.88,5.2,-1.98,6.26
25.315747022628784,3.34,5.66,-2.06,6.88
25.31819987297058,4.05,5.93,-2.15,7.49
25.319818019866943,4.85,6.07,-2.3,8.1
25.323405027389526,5.58,6.27,-2.35,8.71
25.332037925720215,6.22,6.52,-2.21,9.27
25.342281103134155,6.83,6.73,-2.05,9.8
25.35261297225952,7.43,6.83,-1.95,10.27
25.36224913597107,7.97,6.91,-1.97,10.73
25.37239384651184,8.27,6.92,-2.02,10.97
25.3822500705719,8.49,6.67,-2.09,10.99
25.41444706916809,8.79,6.02,-2.35,10.9
25.41734004020691,9.15,5.21,-2.72,10.87
25.41902184486389,9.21,4.8,-2.89,10.78
25.422696828842163,8.9,4.64,-2.74,10.4
25.432031869888306,8.53,4.51,-2.37,9.93
25.442147970199585,8.08,4.33,-1.95,9.37
25.45211100578308,7.69,3.98,-1.47,8.78
25.462284803390503,7.26,3.39,-1.07,8.08
25.472030878067017,6.65,2.78,-0.8,7.25
25.482097864151,6.05,2.2,-0.48,6.45
25.516901969909668,5.56,1.68,-0.09,5.8
25.519377946853638,5.42,1.32,0.29,5.58
25.521258115768433,5.55,1.02,0.41,5.65
25.52296280860901,5.79,0.94,0.56,5.89
25.544344902038574,5.93,1.05,0.73,6.06
25.546629905700684,5.91,1.13,0.87,6.07
25.55197501182556,5.77,1.04,0.77,5.91
25.56175398826599,5.49,0.93,0.59,5.59
25.57183599472046,5.13,0.82,0.46,5.21
25.581724882125854,4.75,0.65,0.43,4.81
25.615819931030273,4.21,0.34,0.42,4.24
25.617928981781006,3.6,-0.02,0.62,3.65
25.619606018066406,2.83,0.01,0.76,2.93
25.622814893722534,2.18,-0.07,0.9,2.35
25.631272077560425,1.68,-0.42,0.75,1.88
25.64267611503601,1.16,-0.89,0.79,1.66
25.65188479423523,0.7,-1.4,0.81,1.76
25.661525011062622,0.26,-1.86,0.68,1.99
25.671525955200195,-0.19,-2.25,0.52,2.31
25.681827783584595,-0.61,-2.68,0.5,2.79
25.71375012397766,-0.93,-3.23,0.45,3.39
25.71654200553894,-1.16,-3.83,0.35,4.01
25.718249082565308,-1.33,-4.23,0.23,4.44
25.721309900283813,-1.47,-4.41,0.21,4.65
25.73121690750122,-1.6,-4.58,0.21,4.85
25.740926027297974,-1.69,-4.78,0.1,5.07
25.751348972320557,-1.71,-5.04,-0.06,5.32
25.761640787124634,-1.68,-5.24,-0.15,5.5
25.771225929260254,-1.6,-5.41,-0.14,5.64
25.781254053115845,-1.57,-5.5,-0.11,5.72
25.81500792503357,-1.54,-5.53,-0.01,5.74
25.817439794540405,-1.17,-5.61,0.09,5.73
25.819132089614868,-0.65,-5.84,0.22,5.88
25.82247495651245,0.03,-6.17,0.37,6.18
25.83079695701599,0.79,-6.55,0.48,6.61
25.842838048934937,1.5,-6.86,0.53,7.04
25.851089000701904,1.97,-7.12,0.54,7.4
25.861037015914917,2.09,-7.37,0.36,7.66
25.871006965637207,1.84,-7.51,0.13,7.73
25.880987882614136,1.5,-7.5,0.02,7.64
25.91380500793457,1.59,-7.57,-0.02,7.73
25.916560888290405,2.39,-7.71,-0.12,8.07
25.918236017227173,3.28,-7.87,-0.37,8.53
25.92144513130188,3.68,-7.84,-0.63,8.68
25.930593013763428,3.91,-7.42,-0.64,8.41
25.94119095802307,4.49,-6.92,-0.7,8.27
25.95081090927124,5.37,-6.67,-0.85,8.6
25.96096396446228,6.07,-6.41,-0.96,8.88
25.970898866653442,6.44,-5.98,-0.88,8.83
25.980790853500366,6.73,-5.45,-0.77,8.69
26.014507055282593,7.07,-4.94,-0.78,8.66
26.01679801940918,7.23,-4.34,-0.65,8.45
26.018446922302246,7.28,-3.57,-0.39,8.11
26.021235942840576,7.26,-2.74,-0.17,7.76
26.030417919158936,7.1,-2.05,-0.11,7.39
26.04024910926819,6.91,-1.63,-0.25,7.1
26.050204038619995,6.38,-1.35,-0.57,6.54
26.060652017593384,5.37,-1.02,-0.91,5.54
26.070535898208618,4.28,-0.74,-1.23,4.51
26.080413103103638,3.19,-0.42,-1.7,3.63
26.112520933151245,2.07,-0.06,-2.12,2.96
26.11534810066223,1.0,0.34,-2.33,2.55
26.11703085899353,0.13,0.81,-2.53,2.65
26.12012791633606,-0.59,1.21,-2.6,2.92
26.129985094070435,-1.18,1.4,-2.42,3.03
26.140299081802368,-1.55,1.5,-2.1,3.01
26.1506187915802,-1.78,1.66,-1.77,3.0
26.160306930541992,-1.82,1.81,-1.41,2.92
26.170249938964844,-1.64,1.84,-1.05,2.67
26.180565118789673,-1.35,1.87,-0.8,2.44
26.21387791633606,-0.9,1.99,-0.56,2.25
26.21666693687439,-0.36,2.2,-0.5,2.28
26.218315839767456,0.01,2.41,-0.59,2.48
26.22087597846985,0.36,2.7,-0.61,2.79
26.230035066604614,0.59,3.06,-0.67,3.18
26.239795923233032,0.89,3.25,-0.63,3.42
26.250062942504883,1.36,3.39,-0.52,3.68
26.260215997695923,1.86,3.6,-0.39,4.07
26.270051956176758,2.38,3.82,-0.2,4.5
26.279969930648804,2.99,4.08,-0.03,5.05
26.31399893760681,3.5,4.48,0.16,5.68
26.316322088241577,3.99,4.97,0.35,6.38
26.31797695159912,4.42,5.49,0.36,7.05
26.319874048233032,4.7,5.78,0.33,7.45
26.32954478263855,4.97,5.81,0.41,7.65
26.339617013931274,5.21,5.74,0.45,7.76
26.34957003593445,5.29,5.82,0.52,7.88
26.359795808792114,5.43,6.02,0.65,8.13
26.36985492706299,6.0,6.01,0.82,8.53
26.379843950271606,6.86,5.88,0.66,9.05
26.412636041641235,7.54,5.84,0.12,9.53
26.41546392440796,7.91,5.58,-0.43,9.68
26.417146921157837,8.21,5.1,-0.98,9.71
26.42024302482605,8.3,4.65,-1.73,9.66
26.429290056228638,8.15,4.38,-2.29,9.53
26.440008878707886,7.89,4.23,-2.49,9.29
26.44965100288391,7.68,4.05,-2.44,9.01
26.459448099136353,7.43,3.66,-2.19,8.56
26.469753980636597,7.29,3.15,-1.55,8.09
26.479554891586304,7.24,2.64,-0.82,7.74
26.51398205757141,7.0,2.02,-0.18,7.28
26.51606583595276,6.63,1.28,0.49,6.77
26.517746925354004,6.36,0.62,1.11,6.48
26.520781993865967,6.23,0.13,1.55,6.42
26.529083967208862,6.17,-0.18,1.76,6.41
26.539174795150757,5.98,-0.39,1.86,6.27
26.54929280281067,5.64,-0.66,1.87,5.97
26.558890104293823,4.77,-1.29,1.96,5.31
26.56941795349121,3.94,-1.3,1.47,4.4
26.57961392402649,3.37,-1.31,0.8,3.7
26.60990309715271,3.38,-1.24,0.76,3.67
26.612587928771973,2.99,-1.03,0.87,3.27
26.614248037338257,2.12,-0.78,0.68,2.35
26.618794918060303,1.5,-0.55,0.37,1.63
26.628609895706177,0.92,-0.29,0.17,0.97
26.638762950897217,0.47,0.03,0.03,0.47
26.649053812026978,0.04,0.27,-0.02,0.27
26.659287929534912,-0.34,0.23,0.05,0.41
26.66915011405945,-0.67,0.18,0.11,0.7
26.679073095321655,-0.95,0.12,0.1,0.96
26.711962938308716,-1.18,-0.11,0.18,1.19
26.714351892471313,-1.32,-0.39,0.34,1.41
26.715852975845337,-1.32,-0.78,0.44,1.59
26.718513011932373,-1.09,-1.21,0.49,1.7
26.72854208946228,-0.85,-1.66,0.51,1.93
26.738466024398804,-0.81,-2.11,0.55,2.32
26.748450994491577,-0.71,-2.59,0.53,2.73
26.75894284248352,-0.66,-3.04,0.43,3.14
26.768463850021362,-0.66,-3.36,0.37,3.44
26.77908492088318,-0.54,-3.59,0.38,3.65
26.809633016586304,-0.33,-3.79,0.44,3.82
26.8122718334198,-0.03,-3.99,0.48,4.01
26.81389880180359,0.19,-4.25,0.42,4.27
26.81822896003723,0.5,-4.57,0.36,4.61
26.828540086746216,0.98,-4.99,0.33,5.09
26.838279962539673,1.55,-5.42,0.27,5.64
26.848516941070557,2.15,-5.77,0.36,6.16
26.858768939971924,2.68,-6.0,0.48,6.58
26.868531942367554,2.95,-6.15,0.41,6.83
26.878527879714966,2.89,-6.28,0.32,6.92
26.91243600845337,2.63,-6.4,0.24,6.92
26.91413712501526,2.5,-6.67,0.09,7.12
26.915809869766235,2.76,-7.17,-0.07,7.68
26.919109106063843,3.15,-7.67,-0.24,8.29
26.928131818771362,3.14,-7.77,-0.51,8.39
26.93817687034607,3.01,-7.36,-0.36,7.95
26.94848394393921,3.39,-7.06,-0.17,7.83
26.95817995071411,4.02,-6.96,-0.18,8.03
26.96866798400879,4.68,-6.72,-0.16,8.19
26.978332996368408,5.13,-6.24,-0.02,8.07
27.010005950927734,5.32,-5.54,0.18,7.68
27.011796951293945,5.55,-4.96,0.36,7.45
27.013435125350952,5.7,-4.41,0.46,7.22
27.017807006835938,5.72,-3.59,0.67,6.78
27.027963876724243,5.68,-2.79,0.86,6.38
27.037588834762573,5.56,-2.14,0.83,6.01
27.04806900024414,5.24,-1.65,0.58,5.52
27.058116912841797,4.58,-1.38,0.24,4.78
27.068004846572876,3.75,-1.24,-0.06,3.95
27.07842493057251,3.09,-1.16,-0.63,3.36
27.110377073287964,2.4,-0.98,-1.21,2.86
27.11218285560608,1.64,-0.59,-1.56,2.33
27.113874912261963,1.04,-0.2,-1.86,2.14
27.117575883865356,0.51,0.06,-2.1,2.16
27.127557039260864,0.13,0.26,-2.21,2.22
27.137744903564453,-0.25,0.5,-2.13,2.2
27.147549867630005,-0.5,0.7,-1.85,2.04
27.1578049659729,-0.57,0.9,-1.59,1.91
27.167904138565063,-0.48,1.04,-1.21,1.66
27.177831888198853,-0.39,1.18,-0.81,1.48
27.21020197868347,-0.28,1.3,-0.62,1.46
27.213045835494995,-0.17,1.43,-0.63,1.57
27.214711904525757,0.07,1.55,-0.61,1.66
27.21793794631958,0.63,1.63,-0.63,1.85
27.227447986602783,1.32,1.66,-0.77,2.25
27.237417936325073,1.7,1.85,-0.91,2.67
27.247668981552124,1.77,2.08,-1.09,2.94
27.257611989974976,1.71,2.15,-1.2,2.99
27.26748299598694,1.79,2.19,-1.51,3.2
27.277565956115723,1.74,2.3,-1.77,3.38
27.310991048812866,1.69,2.48,-1.8,3.49
27.31277108192444,1.77,2.78,-1.8,3.75
27.31434178352356,1.98,3.09,-1.93,4.14
27.31737494468689,2.16,3.48,-2.06,4.58
27.326932907104492,2.27,3.91,-2.06,4.96
27.337004899978638,2.33,4.23,-2.04,5.24
27.34745693206787,2.5,4.4,-2.08,5.47
27.357273817062378,2.82,4.54,-2.12,5.74
27.36763596534729,3.15,4.83,-2.21,6.17
27.37732195854187,3.57,5.17,-2.26,6.67
27.41051697731018,4.05,5.46,-2.36,7.19
27.41231393814087,4.61,5.62,-2.51,7.69
27.41399884223938,5.24,5.69,-2.65,8.17
27.417078971862793,6.16,5.61,-2.86,8.8
27.426748991012573,7.47,5.3,-3.11,9.67
27.43718981742859,8.82,4.99,-3.26,10.64
27.44689393043518,9.93,4.82,-3.33,11.52
27.457279920578003,10.6,4.83,-3.25,12.09
27.467087984085083,10.81,4.98,-3.05,12.28
27.47742199897766,10.48,5.11,-2.74,11.97
27.508058786392212,9.67,4.96,-2.22,11.09
27.50987195968628,8.76,4.37,-1.57,9.91
27.511555910110474,7.83,3.52,-0.99,8.64
27.516458988189697,6.95,2.71,-0.56,7.48
27.526530981063843,6.17,1.83,-0.28,6.44
27.536547899246216,5.42,1.04,-0.24,5.52
27.54645085334778,4.66,0.48,-0.14,4.68
27.557096004486084,4.08,0.28,0.18,4.09
27.56674098968506,3.69,0.31,0.63,3.75
27.57660984992981,3.55,0.31,0.98,3.69
27.608411073684692,3.54,0.3,1.2,3.74
27.610191106796265,3.81,0.33,1.34,4.05
27.61185908317566,3.88,0.37,1.18,4.07
27.616508960723877,3.53,0.3,0.84,3.64
27.626379013061523,3.07,0.13,0.5,3.11
27.636514902114868,2.54,0.61,0.25,2.62
27.646146059036255,2.05,0.78,0.27,2.2
27.6564359664917,1.8,0.54,0.35,1.91
27.66662287712097,1.58,0.22,0.26,1.61
27.676536798477173,1.13,-0.12,0.46,1.22
27.70718789100647,0.57,-0.24,0.68,0.91
27.70894694328308,0.19,-0.7,0.95,1.19
27.710606813430786,0.05,-1.2,1.13,1.64
27.716109037399292,0.06,-1.66,1.14,2.01
27.72599196434021,-0.04,-2.15,1.06,2.39
27.735892057418823,-0.21,-2.69,1.02,2.88
27.74623703956604,-0.25,-3.16,0.92,3.3
27.75657892227173,-0.39,-3.58,0.64,3.65
27.766236066818237,-0.54,-3.93,0.36,3.98
27.776413917541504,-0.69,-4.2,0.18,4.26
27.807780027389526,-0.75,-4.43,-0.01,4.49
27.80964207649231,-0.64,-4.66,-0.19,4.7
27.811327934265137,-0.46,-4.91,-0.38,4.94
27.815715074539185,-0.44,-5.15,-0.49,5.19
27.82566809654236,-0.46,-5.37,-0.47,5.41
27.83595299720764,-0.45,-5.57,-0.43,5.6
27.845798015594482,-0.27,-5.76,-0.38,5.77
27.85611081123352,0.09,-6.01,-0.29,6.01
27.866175889968872,0.64,-6.26,-0.19,6.29
27.876003980636597,1.36,-6.46,-0.08,6.6
27.90896487236023,1.95,-6.62,-0.08,6.9
27.910605907440186,2.3,-6.79,-0.16,7.17
27.912465810775757,2.32,-6.92,-0.24,7.3
27.91594386100769,2.09,-7.0,-0.33,7.31
27.925455808639526,2.02,-7.0,-0.4,7.29
27.935529947280884,2.59,-7.0,-0.42,7.47
27.945878982543945,3.5,-7.01,-0.54,7.85
27.955766916275024,3.91,-6.95,-0.78,8.01
27.96600890159607,3.55,-6.57,-1.07,7.54
27.97573685646057,2.86,-5.87,-1.03,6.61
28.007030963897705,2.58,-5.27,-0.9,5.93
28.008876085281372,2.95,-4.99,-0.98,5.87
28.010576963424683,3.49,-4.88,-0.95,6.07
28.01537299156189,4.17,-4.75,-0.58,6.34
28.025458097457886,4.95,-4.64,-0.31,6.79
28.035188913345337,5.72,-4.56,-0.04,7.31
28.045126914978027,6.56,-4.45,0.36,7.93
28.055402994155884,7.28,-4.17,0.6,8.41
28.065812826156616,7.57,-3.58,0.64,8.39
28.075434923171997,7.37,-2.75,0.59,7.88
28.106436014175415,6.66,-1.91,0.35,6.93
28.10822892189026,5.52,-1.31,-0.14,5.67
28.109987020492554,4.39,-0.96,-0.69,4.54
28.114953994750977,3.23,-0.56,-1.26,3.51
28.124921083450317,2.18,-0.11,-1.78,2.81
28.13494610786438,1.25,0.34,-2.1,2.46
28.145097970962524,0.57,0.78,-2.3,2.49
28.15537190437317,-0.14,1.2,-2.49,2.76
28.165265798568726,-0.78,1.55,-2.5,3.04
28.175480127334595,-1.37,1.81,-2.39,3.29
28.20668387413025,-1.8,1.9,-2.23,3.43
28.208513021469116,-2.08,1.94,-2.04,3.5
28.210197925567627,-2.16,1.95,-1.79,3.41
28.214849948883057,-2.08,1.97,-1.57,3.26
28.22483491897583,-1.8,2.1,-1.43,3.11
28.23484992980957,-1.3,2.32,-1.38,2.99
28.244856119155884,-0.51,2.59,-1.37,2.97
28.25503396987915,0.25,2.98,-1.45,3.32
28.265252828598022,0.85,3.44,-1.58,3.87
28.274950981140137,1.38,3.83,-1.66,4.39
28.306894063949585,1.98,4.09,-1.63,4.82
28.308690786361694,2.69,4.37,-1.7,5.4
28.31045889854431,3.17,4.63,-1.58,5.82
28.31456685066223,3.59,4.99,-1.39,6.3
28.324572801589966,3.93,5.43,-1.37,6.84
28.334450006484985,4.25,5.8,-1.23,7.29
28.344644784927368,4.54,6.13,-1.14,7.71
28.354721784591675,4.65,6.27,-1.06,7.87
28.364754915237427,4.63,6.43,-0.91,7.97
28.37494993209839,4.62,6.56,-0.8,8.06
28.405985116958618,4.87,6.47,-0.66,8.12
28.407761812210083,5.31,6.2,-0.66,8.18
28.40932297706604,5.76,5.91,-0.94,8.3
28.414294004440308,6.11,5.81,-1.47,8.55
28.424304962158203,6.46,5.72,-2.17,8.89
28.434194803237915,6.75,5.4,-2.85,9.1
28.444338083267212,7.2,4.98,-3.45,9.4
28.45467209815979,7.77,4.28,-3.75,9.63
28.46458601951599,8.12,3.71,-3.78,9.69
28.474769830703735,8.02,3.55,-3.74,9.53
28.507484912872314,7.81,3.41,-3.21,9.1
28.509310960769653,7.83,3.02,-2.37,8.72
28.5109760761261,7.81,2.58,-1.66,8.39
28.51400899887085,7.75,2.14,-1.17,8.12
28.52402091026306,7.87,1.57,-1.0,8.08
28.534236907958984,7.79,0.81,-0.73,7.86
28.5439670085907,7.45,0.13,-0.21,7.45
28.553887128829956,7.06,-0.22,0.28,7.06
28.564407110214233,6.61,-0.29,0.66,6.64
28.574245929718018,6.15,-0.33,1.15,6.26
28.605103015899658,5.84,-0.41,1.73,6.1
28.60691809654236,5.65,-0.62,2.14,6.07
28.608629941940308,5.33,-1.03,2.69,6.05
28.613677978515625,4.81,-0.98,2.97,5.73
28.62369990348816,4.33,-1.11,2.92,5.33
28.63401484489441,3.58,-1.46,2.19,4.44
28.643677949905396,2.3,-1.83,1.74,3.41
28.653764009475708,2.09,-0.54,1.53,2.64
28.66428303718567,1.89,-0.73,2.55,3.25
28.673959016799927,1.3,-1.09,2.46,2.98
28.70599102973938,0.48,-1.25,2.12,2.5
28.707819938659668,-0.37,-1.84,1.79,2.59
28.709544897079468,-1.29,-2.03,1.33,2.74
28.713428020477295,-1.85,-2.4,0.8,3.13
28.72374701499939,-2.33,-2.95,0.39,3.77
28.73341393470764,-2.94,-3.63,0.13,4.67
28.743557929992676,-2.98,-4.11,-0.31,5.08
28.753795862197876,-2.63,-4.74,-0.4,5.43
28.76388382911682,-3.11,-4.63,-0.39,5.59
28.77371382713318,-3.2,-4.34,-0.59,5.42
28.80482506752014,-2.69,-4.72,-1.0,5.52
28.806620836257935,-2.47,-4.76,-0.87,5.43
28.808315992355347,-2.47,-4.75,-0.9,5.42
28.813437938690186,-2.26,-4.71,-0.93,5.3
28.82353711128235,-1.84,-4.76,-0.79,5.16
28.833292961120605,-1.27,-4.83,-0.55,5.02
28.84337091445923,-0.43,-4.93,-0.32,4.95
28.853523015975952,0.59,-5.21,-0.25,5.24
28.86347985267639,1.57,-5.51,-0.19,5.73
28.873759031295776,2.15,-5.65,-0.09,6.04
28.904577016830444,2.46,-5.78,0.05,6.28
28.906349897384644,2.64,-5.93,0.04,6.49
28.90802502632141,2.59,-6.16,-0.09,6.68
28.913065910339355,2.31,-6.36,-0.3,6.77
28.923354864120483,1.98,-6.62,-0.63,6.93
28.932989835739136,1.96,-6.83,-0.94,7.16
28.942877054214478,2.43,-7.0,-1.17,7.5
28.9533109664917,2.91,-7.18,-1.44,7.87
28.9631769657135,2.96,-7.13,-1.54,7.87
28.973336935043335,2.93,-6.62,-1.29,7.35
29.00469183921814,3.35,-6.06,-1.0,6.99
29.006437063217163,4.11,-5.76,-0.81,7.12
29.008044004440308,4.88,-5.39,-0.75,7.3
29.01279902458191,5.58,-4.91,-0.67,7.46
29.02262806892395,6.31,-4.45,-0.45,7.73
29.032795906066895,7.09,-4.06,-0.31,8.17
29.04268193244934,7.86,-3.68,-0.24,8.68
29.0529568195343,8.36,-3.12,-0.23,8.92
29.06294083595276,8.57,-2.47,-0.25,8.92
29.073128938674927,8.61,-1.86,-0.31,8.81
29.103255033493042,8.32,-1.29,-0.55,8.43
29.105100870132446,7.39,-0.71,-0.97,7.48
29.10671305656433,6.17,-0.23,-1.45,6.34
29.11256694793701,4.9,0.21,-1.81,5.22
29.122541904449463,3.54,0.62,-2.11,4.16
29.13274598121643,2.29,0.96,-2.37,3.43
29.142473936080933,1.24,1.26,-2.45,3.02
29.152386903762817,0.35,1.47,-2.44,2.87
29.162965059280396,-0.38,1.5,-2.35,2.81
29.17276692390442,-1.06,1.54,-2.1,2.81
29.203824996948242,-1.68,1.63,-1.7,2.89
29.205663919448853,-2.12,1.67,-1.44,3.05
29.20735812187195,-2.34,1.62,-1.39,3.16
29.212177991867065,-2.37,1.58,-1.38,3.16
29.222589015960693,-2.45,1.53,-1.32,3.17
29.23221182823181,-2.44,1.59,-1.2,3.14
29.24236512184143,-2.11,1.74,-1.19,2.98
29.252087831497192,-1.6,1.91,-1.31,2.81
29.262609004974365,-1.05,2.12,-1.32,2.7
29.272834062576294,-0.48,2.35,-1.27,2.71
29.30389380455017,0.02,2.59,-1.38,2.93
29.30570912361145,0.34,2.81,-1.4,3.15
29.30766987800598,0.81,2.99,-1.31,3.36
29.312175035476685,1.3,3.11,-1.28,3.6
29.321976900100708,1.7,3.37,-1.23,3.96
29.332228899002075,2.09,3.72,-1.03,4.38
29.342072010040283,2.53,4.08,-0.82,4.87
29.35228991508484,3.12,4.43,-0.62,5.45
29.36263108253479,3.84,4.72,-0.45,6.1
29.372307062149048,4.64,4.93,-0.24,6.77
29.40439796447754,5.4,5.21,-0.18,7.5
29.40616011619568,6.1,5.53,-0.21,8.23
29.407798051834106,6.83,5.75,-0.28,8.93
29.411760091781616,7.41,5.97,-0.5,9.52
29.42176079750061,7.86,6.15,-0.87,10.01
29.43174386024475,8.32,6.09,-1.33,10.39
29.44186496734619,8.98,5.75,-1.79,10.81
29.452279806137085,9.89,5.2,-2.33,11.41
29.462008953094482,10.61,4.61,-2.77,11.89
29.47216010093689,10.94,4.24,-3.04,12.12
29.50352191925049,11.11,4.01,-3.12,12.21
29.50530982017517,10.85,3.8,-2.94,11.86
29.507226943969727,10.05,3.55,-2.48,10.94
29.511487007141113,9.01,3.22,-1.67,9.71
29.521692037582397,7.98,2.67,-0.93,8.46
29.531539916992188,7.04,1.92,-0.36,7.3
29.541548013687134,6.32,1.23,0.24,6.44
29.551662921905518,5.75,0.59,0.77,5.83
29.562033891677856,5.52,0.03,1.16,5.64
29.57171392440796,5.41,-0.37,1.49,5.62
29.6039559841156,5.18,-0.62,1.74,5.49
29.606830835342407,4.78,-0.71,1.99,5.22
29.608497858047485,4.38,-0.76,2.22,4.96
29.611849069595337,3.99,-0.8,2.25,4.65
29.621155977249146,3.52,-0.84,1.99,4.12
29.631356954574585,2.76,-1.31,1.72,3.5
29.64191699028015,2.05,-1.01,1.62,2.8
29.651330947875977,1.61,-0.62,1.14,2.06
29.661499977111816,1.09,-0.46,0.97,1.52
29.671397924423218,0.49,-0.34,0.93,1.1
29.703791856765747,-0.03,-0.23,0.78,0.81
29.70672297477722,-0.51,-0.16,0.57,0.78
29.708364009857178,-0.87,-0.31,0.58,1.09
29.71160101890564,-1.31,-0.41,0.46,1.44
29.72129797935486,-1.68,-0.66,0.35,1.83
29.730974912643433,-1.9,-1.0,0.37,2.17
29.741321802139282,-2.05,-1.36,0.25,2.47
29.751540899276733,-2.15,-1.64,0.14,2.7
29.761287927627563,-2.19,-1.83,0.13,2.85
29.77147078514099,-2.01,-2.01,0.05,2.84
29.804042100906372,-1.58,-2.3,-0.14,2.79
29.806544065475464,-1.22,-2.59,-0.33,2.88
29.80814003944397,-0.95,-2.82,-0.38,2.99
29.811434030532837,-0.71,-2.99,-0.42,3.1
29.82081389427185,-0.52,-3.09,-0.47,3.16
29.831496000289917,-0.32,-3.14,-0.49,3.19
29.841089010238647,-0.1,-3.25,-0.41,3.27
29.85109305381775,0.27,-3.5,-0.25,3.51
29.861127138137817,0.96,-3.87,-0.05,3.98
29.87091612815857,1.87,-4.37,0.12,4.75
29.90600085258484,2.67,-4.88,0.13,5.56
29.908365964889526,3.2,-5.34,0.1,6.22
29.910255908966064,3.44,-5.68,0.24,6.64
29.913020849227905,3.29,-5.97,0.28,6.82
29.920485973358154,2.86,-6.29,0.18,6.91
29.93053698539734,2.49,-6.58,0.11,7.03
29.94063091278076,2.57,-6.96,0.08,7.41
29.95117998123169,3.02,-7.45,-0.14,8.04
29.960787057876587,3.22,-7.79,-0.36,8.43
29.97058892250061,3.07,-7.81,-0.36,8.39
30.004673957824707,3.01,-7.57,-0.15,8.14
30.006802797317505,3.46,-7.35,0.07,8.12
30.00847101211548,4.21,-7.12,0.04,8.27
30.011546850204468,4.9,-6.69,0.02,8.29
30.020172834396362,5.46,-6.24,0.18,8.29
30.030261993408203,6.05,-5.9,0.36,8.45
30.04048180580139,6.74,-5.61,0.44,8.78
30.050745964050293,7.17,-5.16,0.46,8.84
30.06050992012024,7.4,-4.38,0.5,8.61
30.070544958114624,7.35,-3.4,0.39,8.1
30.103204011917114,6.9,-2.53,0.02,7.34
30.105453968048096,6.11,-1.93,-0.51,6.42
30.10723900794983,5.05,-1.55,-1.16,5.4
30.11076283454895,3.77,-1.27,-1.79,4.36
30.11999487876892,2.37,-0.98,-2.06,3.28
30.130160093307495,1.03,-0.6,-2.41,2.68
