time,ax,ay,az,atotal
0.013377904891967773,-0.04,0.16,0.01,0.16
0.01709294319152832,-0.05,-0.11,-0.45,0.46
0.04721689224243164,-0.01,-0.16,-0.74,0.75
0.048813819885253906,0.15,-0.39,-0.63,0.75
0.049576759338378906,0.37,-0.13,-0.43,0.58
0.0572209358215332,0.25,0.16,-0.14,0.32
0.06722402572631836,0.14,0.27,0.09,0.31
0.07719182968139648,0.07,0.19,0.17,0.26
0.08774685859680176,0.0,-0.03,0.07,0.07
0.09746980667114258,-0.03,-0.15,-0.18,0.23
0.10770082473754883,0.03,-0.16,-0.4,0.43
0.11819982528686523,0.09,-0.28,-0.48,0.56
0.15067386627197266,0.12,-0.24,-0.2,0.33
0.15238094329833984,0.12,0.12,0.16,0.23
0.15320301055908203,-0.05,0.18,0.22,0.28
0.15785980224609375,-0.02,0.18,0.3,0.35
0.16786789894104004,0.25,0.12,0.19,0.33
0.17816591262817383,0.42,0.01,0.05,0.42
0.18820905685424805,0.43,0.01,0.04,0.43
0.19827699661254883,0.45,0.02,-0.08,0.45
0.20888280868530273,0.55,-0.14,-0.05,0.56
0.21884775161743164,0.52,-0.36,0.05,0.63
0.25122785568237305,0.19,-0.42,0.16,0.48
0.25281596183776855,-0.07,-0.26,0.45,0.52
0.25379276275634766,-0.14,-0.21,0.27,0.36
0.2684059143066406,0.09,-0.36,-0.04,0.37
0.26934003829956055,0.36,-0.55,-0.59,0.88
0.2786440849304199,0.93,-0.5,-0.98,1.44
0.2888360023498535,1.35,-0.37,-0.77,1.59
0.29877686500549316,1.61,-0.31,-0.46,1.7
0.308927059173584,1.4,-0.21,0.24,1.43
0.3197009563446045,0.73,0.33,1.23,1.46
0.352280855178833,0.22,0.83,1.92,2.1
0.353848934173584,-0.01,0.96,1.79,2.03
0.3547677993774414,0.05,0.9,1.18,1.48
0.37036800384521484,0.5,0.57,0.39,0.85
0.37123584747314453,0.86,0.28,-0.4,0.98
0.37922096252441406,0.6,0.5,-0.61,0.99
0.3895750045776367,0.02,0.73,-0.38,0.82
0.39954686164855957,-0.91,0.98,0.18,1.34
0.40961408615112305,-1.32,1.03,0.67,1.8
0.4201698303222656,-0.72,0.08,0.11,0.73
0.45342302322387695,0.05,-0.7,-1.21,1.39
0.455035924911499,0.25,-0.66,-0.9,1.14
0.4559519290924072,0.31,-0.51,-0.84,1.03
0.4704718589782715,0.53,-0.53,-1.36,1.55
0.47134876251220703,0.56,-0.45,-1.69,1.83
0.479841947555542,0.1,0.28,-0.59,0.66
0.490203857421875,-0.29,0.81,0.61,1.05
0.5001718997955322,-1.02,0.94,0.55,1.49
0.510286808013916,-1.86,0.97,-0.28,2.11
0.5212178230285645,-2.83,1.01,-0.62,3.06
0.555250883102417,-3.03,1.22,-0.53,3.3
0.5567917823791504,-2.29,1.63,-0.12,2.81
0.557729959487915,-1.85,1.29,1.99,3.0
0.5704338550567627,-1.01,-0.66,3.53,3.73
0.5713090896606445,-0.21,-1.65,3.56,3.92
0.5804710388183594,-0.31,-1.49,2.3,2.75
0.5909838676452637,-0.55,-1.66,0.25,1.76
0.6008789539337158,-0.4,-1.89,-1.01,2.17
0.6110010147094727,-0.23,-1.88,-1.56,2.45
0.6216187477111816,-0.22,-1.56,-1.48,2.16
0.6540408134460449,-0.21,-0.88,-0.44,1.0
0.6556000709533691,0.12,0.13,-0.73,0.75
0.6564888954162598,-0.05,0.38,1.25,1.3
0.6702628135681152,-0.11,0.67,2.8,2.88
0.6711928844451904,-0.59,1.15,1.99,2.37
0.681351900100708,-0.93,2.09,1.94,2.99
0.6915798187255859,-0.34,2.73,2.48,3.7
0.7018160820007324,0.3,2.33,3.37,4.1
0.7117269039154053,0.89,1.3,3.99,4.28
0.7223138809204102,1.38,0.46,4.17,4.41
0.754457950592041,1.65,0.06,4.09,4.41
0.7559337615966797,1.69,-0.09,4.16,4.49
0.7568929195404053,1.43,-0.08,4.34,4.57
0.7701349258422852,1.16,-0.16,4.13,4.29
0.7718958854675293,0.95,-0.39,3.62,3.76
0.7819638252258301,0.61,-0.48,3.39,3.47
0.7922699451446533,0.25,-0.4,2.9,2.93
0.80218505859375,-0.11,-0.21,2.11,2.12
0.8123579025268555,-0.56,0.2,1.85,1.94
0.8229818344116211,-0.81,0.45,1.99,2.19
0.857266902923584,-0.81,0.48,1.89,2.11
0.8587279319763184,-0.65,0.32,1.63,1.78
0.8596968650817871,-0.36,0.03,1.32,1.36
0.8698630332946777,-0.06,-0.21,1.03,1.05
0.8725299835205078,0.14,-0.31,0.69,0.76
0.8827829360961914,0.19,-0.29,0.33,0.47
0.8929338455200195,-0.04,-0.28,0.3,0.41
0.9028029441833496,-0.39,-0.31,0.66,0.82
0.9130687713623047,-0.73,-0.33,0.83,1.15
0.9235668182373047,-0.96,-0.32,0.63,1.19
0.9587020874023438,-0.99,-0.26,0.45,1.11
0.9602727890014648,-0.98,-0.26,0.23,1.03
0.9611399173736572,-0.98,-0.29,-0.07,1.02
0.9688010215759277,-0.85,-0.32,-0.29,0.95
0.97334885597229,-0.72,-0.35,-0.47,0.92
0.9833030700683594,-0.71,-0.31,-0.5,0.92
0.9935429096221924,-0.74,-0.3,-0.32,0.86
1.0035638809204102,-0.75,-0.38,-0.24,0.87
1.0136909484863281,-0.76,-0.57,-0.41,1.03
1.024378776550293,-0.68,-0.74,-0.7,1.22
1.0575859546661377,-0.51,-0.82,-0.9,1.32
1.0591919422149658,-0.4,-0.84,-1.11,1.44
1.0600967407226562,-0.39,-0.87,-1.36,1.66
1.0689759254455566,-0.49,-0.85,-1.45,1.75
1.0739519596099854,-0.63,-0.74,-1.3,1.62
1.0842289924621582,-0.7,-0.6,-1.24,1.54
1.0942459106445312,-0.69,-0.51,-1.38,1.62
1.1042580604553223,-0.69,-0.47,-1.59,1.79
1.1143648624420166,-0.77,-0.44,-1.61,1.83
1.1249709129333496,-0.91,-0.39,-1.52,1.81
1.158897876739502,-1.02,-0.33,-1.46,1.81
1.1603589057922363,-1.14,-0.28,-1.37,1.8
1.1612887382507324,-1.22,-0.16,-1.12,1.66
1.1664319038391113,-1.18,-0.11,-0.94,1.51
1.174696922302246,-1.1,-0.2,-0.99,1.49
1.1847000122070312,-0.97,-0.47,-1.11,1.54
1.19496488571167,-0.8,-0.72,-1.18,1.59
1.2049329280853271,-0.73,-0.78,-1.09,1.52
1.2151060104370117,-0.78,-0.79,-0.99,1.48
1.2257637977600098,-0.89,-0.83,-0.77,1.44
1.2598998546600342,-0.94,-0.88,-0.46,1.36
1.2614998817443848,-0.9,-0.94,-0.28,1.33
1.2623920440673828,-0.93,-1.0,-0.26,1.39
1.2676119804382324,-0.84,-1.22,-0.31,1.51
1.2753188610076904,-0.64,-1.51,-0.34,1.67
1.285386085510254,-0.58,-1.59,-0.38,1.73
1.2955849170684814,-0.63,-1.48,-0.42,1.66
1.3056268692016602,-0.56,-1.24,-0.32,1.39
1.3159289360046387,-0.51,-1.26,-0.44,1.42
1.3262689113616943,-0.45,-1.45,-0.55,1.61
1.3607730865478516,-0.36,-1.47,-0.43,1.57
1.3623919486999512,-0.3,-1.41,-0.32,1.47
1.3632597923278809,-0.18,-1.37,-0.41,1.44
1.3662059307098389,-0.14,-1.32,-0.58,1.44
1.3759808540344238,-0.12,-1.31,-0.64,1.46
1.3861517906188965,-0.15,-1.29,-0.8,1.52
1.3963260650634766,-0.21,-1.11,-0.97,1.48
1.4062778949737549,-0.3,-0.91,-0.97,1.36
1.4169409275054932,-0.56,-0.65,-0.84,1.2
1.4267587661743164,-0.75,-0.29,-0.67,1.04
1.4629759788513184,-0.66,-0.01,-0.62,0.9
1.4645509719848633,-0.57,0.16,-0.63,0.86
1.4654948711395264,-0.75,0.22,-0.55,0.95
1.4678230285644531,-1.09,0.25,-0.54,1.24
1.4765479564666748,-1.29,0.35,-0.51,1.43
1.4867949485778809,-1.13,0.54,-0.5,1.34
1.496717929840088,-1.05,0.67,-0.5,1.34
1.5069539546966553,-1.23,0.62,-0.47,1.45
1.5170249938964844,-1.37,0.45,-0.23,1.46
1.5271210670471191,-1.69,0.37,-0.02,1.73
1.5604348182678223,-1.99,0.44,0.22,2.04
1.5621280670166016,-2.28,0.6,0.44,2.39
1.5629959106445312,-2.45,0.62,0.52,2.58
1.5672187805175781,-2.57,0.35,0.46,2.63
1.581399917602539,-2.58,0.0,0.39,2.6
1.5873558521270752,-2.45,-0.22,0.47,2.5
1.5975680351257324,-2.3,-0.33,0.48,2.37
1.607618808746338,-2.29,-0.4,0.54,2.38
1.617668867111206,-1.98,-0.58,0.57,2.14
1.6284868717193604,-1.8,-0.96,0.46,2.09
1.6616089344024658,-1.82,-1.28,0.5,2.28
1.663187026977539,-1.74,-1.47,0.41,2.31
1.6640820503234863,-1.72,-1.68,0.44,2.44
1.6679918766021729,-1.82,-1.93,0.4,2.68
1.6780638694763184,-1.97,-2.15,0.42,2.94
1.68809175491333,-1.96,-2.28,0.44,3.03
1.6983599662780762,-1.88,-2.27,0.35,2.96
1.7083797454833984,-1.83,-2.15,0.49,2.86
1.7183837890625,-1.67,-2.03,0.43,2.66
1.7291297912597656,-1.68,-1.87,-0.01,2.51
1.7617740631103516,-1.7,-1.79,-0.34,2.49
1.7633848190307617,-1.65,-1.89,-0.38,2.53
1.764251947402954,-1.56,-2.13,-0.08,2.64
1.7685937881469727,-1.36,-2.51,0.01,2.85
1.7788519859313965,-1.08,-2.93,-0.28,3.13
1.78865385055542,-0.65,-3.3,-0.59,3.41
1.7987828254699707,-0.05,-3.59,-1.01,3.72
1.809032917022705,0.44,-3.8,-1.5,4.1
1.8191759586334229,0.68,-4.03,-1.83,4.47
1.8293137550354004,0.48,-4.24,-2.04,4.72
1.8624608516693115,0.09,-4.43,-1.74,4.76
1.8640239238739014,-0.08,-4.41,-2.09,4.88
1.8649158477783203,0.03,-4.1,-3.02,5.09
1.8692717552185059,-0.2,-3.72,-3.33,4.99
1.8796448707580566,-0.65,-3.41,-3.22,4.73
1.8893427848815918,-1.04,-3.28,-2.98,4.55
1.8996899127960205,-0.96,-3.42,-3.16,4.75
1.9096949100494385,-0.54,-3.73,-4.03,5.51
1.919774055480957,-0.19,-3.91,-5.05,6.38
1.930846929550171,-0.26,-3.74,-5.29,6.48
1.964977741241455,-0.63,-3.37,-4.73,5.84
1.966568946838379,-0.71,-3.19,-4.09,5.23
1.9674630165100098,-0.45,-3.41,-3.89,5.19
1.969904899597168,-0.15,-3.78,-4.03,5.52
1.9800238609313965,0.28,-3.97,-4.4,5.93
1.9902009963989258,0.78,-3.79,-4.85,6.2
2.0004079341888428,1.65,-3.06,-5.38,6.4
2.0103249549865723,2.35,-1.88,-5.41,6.19
2.0205230712890625,2.64,-0.73,-4.55,5.31
2.031498908996582,2.7,-0.08,-3.53,4.44
2.066032886505127,2.36,0.01,-2.78,3.64
2.0676119327545166,1.81,-0.39,-2.17,2.85
2.0685677528381348,1.59,-1.02,-1.62,2.48
2.0705480575561523,2.25,-1.35,-1.39,2.96
2.0808348655700684,3.89,-0.73,-2.43,4.64
2.0907788276672363,5.29,0.86,-3.75,6.54
2.1013588905334473,5.71,2.71,-3.76,7.35
2.1110289096832275,5.46,4.39,-2.4,7.4
2.1210689544677734,4.63,4.8,-0.34,6.67
2.1311068534851074,4.15,3.94,0.26,5.72
2.165278911590576,3.85,3.46,-0.73,5.22
2.166879892349243,3.54,4.13,-1.28,5.58
2.1677918434143066,3.49,5.1,-0.99,6.25
2.171198844909668,3.92,5.72,-0.37,6.94
2.181386947631836,4.3,6.16,-0.04,7.51
2.191412925720215,4.61,6.16,0.01,7.69
2.2017018795013428,4.87,5.69,0.0,7.48
2.2117490768432617,4.73,5.54,0.72,7.32
2.2218117713928223,4.4,5.8,2.14,7.58
2.2324438095092773,4.11,6.48,4.01,8.65
2.2649450302124023,3.97,7.47,5.8,10.25
2.266512870788574,4.09,8.36,6.51,11.35
2.267432928085327,4.28,8.63,5.76,11.22
2.272000789642334,4.41,8.45,4.47,10.52
2.282043933868408,4.35,8.1,3.33,9.77
2.292329788208008,4.09,7.79,2.83,9.24
2.3023018836975098,3.72,7.67,2.72,8.94
2.312504768371582,3.18,7.6,2.91,8.73
2.322556972503662,2.51,7.42,3.21,8.46
2.333076000213623,1.98,7.02,3.17,7.95
2.3663299083709717,1.54,6.39,2.76,7.12
2.3679139614105225,1.17,5.68,2.25,6.22
2.368839740753174,0.84,5.03,1.86,5.42
2.3847968578338623,0.48,4.55,1.69,4.87
2.3856897354125977,0.47,4.23,1.71,4.58
2.3930158615112305,0.64,3.94,1.71,4.34
2.403049945831299,0.77,3.68,1.5,4.04
2.4130640029907227,0.77,3.39,1.14,3.65
2.4231090545654297,0.83,3.05,0.63,3.22
2.433732032775879,0.9,2.7,0.12,2.84
2.466355800628662,0.45,2.25,-0.19,2.3
2.4679019451141357,-0.09,1.54,-0.14,1.54
2.468798875808716,-0.49,0.68,0.21,0.86
2.4845359325408936,-0.96,-0.15,0.36,1.03
2.485463857650757,-1.07,-0.55,0.38,1.26
2.4937210083007812,-1.06,-0.52,0.33,1.22
2.5037879943847656,-1.1,-0.38,0.12,1.16
2.5137128829956055,-1.19,-0.2,-0.34,1.25
2.5237889289855957,-1.49,-0.07,-0.72,1.65
2.5339279174804688,-1.86,-0.19,-0.59,1.96
2.568099021911621,-2.02,-0.57,0.07,2.1
2.5696630477905273,-1.88,-1.29,0.88,2.44
2.5706229209899902,-1.29,-2.27,1.33,2.93
2.5845959186553955,-0.48,-2.37,1.36,2.77
2.5855228900909424,-0.23,-2.05,1.24,2.4
2.594350814819336,-0.36,-2.34,0.96,2.55
2.6043739318847656,-0.11,-3.0,0.51,3.04
2.6144909858703613,0.22,-3.63,0.23,3.64
2.624508857727051,0.34,-4.17,0.09,4.18
2.6350739002227783,0.67,-4.66,-0.29,4.71
2.6694388389587402,0.59,-5.2,-0.47,5.25
2.6710479259490967,0.48,-5.22,-0.47,5.26
2.671785831451416,0.6,-4.85,-0.29,4.89
2.6845669746398926,0.78,-4.67,-0.14,4.73
2.6855249404907227,1.16,-4.55,0.17,4.69
2.6950597763061523,1.94,-4.39,0.66,4.84
2.705035924911499,3.09,-4.4,1.05,5.47
2.7150979042053223,4.12,-4.5,1.07,6.19
2.725228786468506,4.97,-4.44,0.94,6.73
2.735687732696533,5.43,-4.23,0.71,6.91
2.7709269523620605,5.68,-3.77,0.42,6.83
2.7725799083709717,5.79,-3.12,0.11,6.57
2.773499011993408,5.78,-2.64,-0.11,6.35
2.783331871032715,5.67,-2.38,-0.31,6.15
2.7854719161987305,5.33,-2.25,-0.66,5.82
2.7955379486083984,4.82,-2.19,-1.12,5.41
2.8058998584747314,4.25,-2.19,-1.5,5.01
2.8157567977905273,3.59,-2.17,-1.69,4.52
2.8258988857269287,2.92,-2.03,-1.82,3.99
2.836472988128662,2.23,-1.82,-1.93,3.46
2.8697919845581055,1.84,-1.56,-2.0,3.13
2.8713440895080566,1.69,-1.33,-2.11,3.01
2.872220039367676,1.67,-1.25,-2.28,3.09
2.8841137886047363,1.54,-1.23,-2.47,3.15
2.8861007690429688,1.39,-1.07,-2.72,3.23
2.8961689472198486,1.24,-0.8,-2.91,3.26
2.906367778778076,1.09,-0.62,-2.85,3.11
2.916425943374634,1.07,-0.58,-2.6,2.87
2.926511764526367,0.89,-0.69,-2.37,2.62
2.9370529651641846,0.94,-0.87,-2.2,2.54
2.9704818725585938,1.18,-0.85,-2.2,2.63
2.971911907196045,1.31,-0.64,-2.31,2.73
2.972886085510254,1.26,-0.47,-2.38,2.73
2.9838268756866455,1.12,-0.36,-2.42,2.69
2.98685884475708,0.82,-0.34,-2.47,2.62
2.996856927871704,0.59,0.13,-2.3,2.37
3.007096767425537,0.22,0.13,-1.66,1.67
3.017232894897461,0.22,-0.62,-1.07,1.25
3.0272698402404785,0.53,-0.96,-1.07,1.53
3.037778854370117,0.58,-0.77,-1.02,1.4
3.0742688179016113,0.6,-0.71,-0.7,1.16
3.0760669708251953,0.57,-0.83,-0.55,1.14
3.0769529342651367,0.43,-0.99,-0.63,1.24
3.082474946975708,0.25,-1.19,-0.75,1.42
3.0874879360198975,-0.04,-1.39,-0.89,1.65
3.0975968837738037,-0.45,-1.63,-0.92,1.92
3.107867956161499,-0.96,-2.01,-0.73,2.34
3.1178669929504395,-1.42,-2.51,-0.6,2.94
3.127910852432251,-1.78,-2.99,-0.55,3.52
3.1384477615356445,-2.2,-3.34,-0.33,4.01
3.173419952392578,-2.79,-3.6,-0.18,4.55
3.1750340461730957,-3.22,-3.76,-0.18,4.95
3.175842761993408,-3.61,-3.99,-0.13,5.38
3.181912899017334,-3.97,-4.35,-0.16,5.89
3.1882688999176025,-4.37,-4.86,-0.27,6.54
3.1981968879699707,-4.8,-5.47,-0.37,7.28
3.208418846130371,-5.28,-6.05,-0.43,8.04
3.218472957611084,-5.63,-6.63,-0.27,8.7
3.228580951690674,-5.83,-7.23,0.06,9.28
3.2393319606781006,-5.8,-7.72,0.61,9.67
3.2733168601989746,-5.38,-8.11,1.15,9.79
3.274909019470215,-4.71,-8.48,1.44,9.8
3.27581787109375,-3.81,-8.78,1.44,9.67
3.2787528038024902,-2.83,-8.96,1.32,9.48
3.288856029510498,-1.77,-9.06,1.18,9.3
3.299050807952881,-0.69,-9.07,0.95,9.14
3.3090908527374268,0.43,-8.93,0.65,8.96
3.3191449642181396,1.6,-8.87,0.32,9.01
3.3292839527130127,2.74,-8.94,0.07,9.35
3.3398027420043945,3.67,-8.92,0.0,9.64
3.373750925064087,4.47,-8.7,-0.19,9.78
3.375356912612915,5.31,-8.38,-0.4,9.92
3.3762569427490234,6.2,-7.96,-0.37,10.09
3.3793439865112305,7.3,-7.4,-0.31,10.39
3.389561891555786,8.46,-6.91,-0.46,10.93
3.399573802947998,9.4,-6.38,-0.64,11.37
3.410578966140747,9.8,-5.69,-0.58,11.34
3.4198927879333496,9.66,-4.63,-0.26,10.71
3.4300308227539062,9.06,-3.3,0.08,9.64
3.4403390884399414,8.35,-2.05,0.32,8.6
3.4737389087677,7.76,-1.11,0.56,7.85
3.4753639698028564,7.41,-0.43,0.72,7.45
3.4762229919433594,7.25,0.07,0.59,7.27
3.481389045715332,7.23,0.5,0.32,7.25
3.490151882171631,7.15,0.99,0.17,7.22
3.5003299713134766,6.97,1.6,0.11,7.15
3.5104050636291504,6.75,2.29,0.1,7.12
3.5204389095306396,6.32,3.02,-0.01,7.0
3.5306148529052734,5.78,3.74,-0.05,6.88
3.541404962539673,5.32,4.37,0.04,6.88
3.5745530128479004,4.82,4.85,0.21,6.84
3.5761218070983887,4.32,5.29,0.35,6.83
3.576995849609375,3.89,5.68,0.4,6.89
3.580820083618164,3.59,5.96,0.39,6.96
3.590894937515259,3.33,6.18,0.31,7.02
3.6011600494384766,3.02,6.46,0.12,7.13
3.6112060546875,2.7,6.81,0.0,7.32
3.6212809085845947,2.4,7.23,0.0,7.61
3.6314139366149902,2.1,7.71,0.02,7.99
3.6418957710266113,1.92,8.15,0.07,8.37
3.675881862640381,1.88,8.48,0.1,8.68
3.677665948867798,1.96,8.77,0.03,8.98
3.6785058975219727,2.22,9.04,-0.05,9.3
3.681475877761841,2.64,9.22,-0.03,9.59
3.6915369033813477,3.14,9.31,0.02,9.82
3.7015609741210938,3.83,9.37,0.04,10.12
3.711956024169922,4.64,9.4,0.02,10.48
3.7217519283294678,5.39,9.44,-0.11,10.87
3.7320098876953125,6.12,9.52,-0.13,11.31
3.742905855178833,7.0,9.6,-0.12,11.88
3.776209831237793,8.12,9.62,-0.26,12.59
3.777859926223755,9.23,9.49,-0.71,13.25
3.77878475189209,10.04,9.17,-1.33,13.66
3.7821507453918457,10.47,8.77,-2.0,13.8
3.7922868728637695,10.38,8.37,-2.76,13.61
3.802288055419922,9.82,8.03,-3.55,13.17
3.8125479221343994,8.98,7.66,-3.95,12.44
3.822488784790039,8.12,7.12,-3.96,11.5
3.8327040672302246,7.5,6.29,-3.77,10.48
3.842578887939453,7.18,5.21,-3.57,9.56
3.8751978874206543,7.19,3.93,-3.49,8.9
3.8768138885498047,7.44,2.54,-3.54,8.62
3.877696990966797,7.86,1.2,-3.66,8.75
3.8829479217529297,8.22,0.06,-3.88,9.08
3.893033981323242,8.39,-0.89,-4.15,9.4
3.9029619693756104,8.47,-1.76,-4.22,9.62
3.913361072540283,8.35,-2.58,-3.98,9.6
3.923150062561035,8.21,-3.37,-3.65,9.59
3.933318853378296,7.98,-4.13,-3.53,9.65
3.9438669681549072,7.59,-4.86,-3.47,9.65
3.9764389991760254,7.17,-5.56,-3.19,9.61
3.978010892868042,6.65,-6.19,-2.91,9.53
3.9788718223571777,5.98,-6.7,-2.65,9.36
3.9835000038146973,5.33,-7.14,-2.31,9.2
3.993607997894287,4.71,-7.53,-1.98,9.09
4.003489971160889,4.04,-7.85,-1.78,9.0
4.014228820800781,3.4,-8.1,-1.68,8.94
4.023794889450073,2.8,-8.28,-1.76,8.91
4.034053802490234,2.17,-8.37,-1.87,8.84
4.044687747955322,1.57,-8.43,-1.87,8.77
4.076606750488281,0.98,-8.51,-1.74,8.74
4.07838773727417,0.39,-8.59,-1.53,8.73
4.079274892807007,-0.08,-8.69,-1.31,8.78
4.084290981292725,-0.4,-8.8,-1.09,8.87
4.094353914260864,-0.62,-8.89,-0.88,8.95
4.104359865188599,-0.75,-8.95,-0.77,9.01
4.114778995513916,-0.85,-9.0,-0.76,9.07
4.124528884887695,-0.93,-9.03,-0.74,9.1
4.134682893753052,-1.05,-9.08,-0.72,9.16
4.144672870635986,-1.28,-9.11,-0.71,9.22
4.1767730712890625,-1.55,-9.1,-0.64,9.25
4.178330898284912,-1.84,-9.11,-0.51,9.3
4.1792449951171875,-2.15,-9.11,-0.38,9.36
4.18488883972168,-2.47,-9.15,-0.32,9.48
4.195033073425293,-2.78,-9.23,-0.23,9.64
4.204916000366211,-3.04,-9.35,-0.11,9.83
4.215415954589844,-3.2,-9.49,0.02,10.01
4.225176811218262,-3.38,-9.6,0.11,10.17
4.235438823699951,-3.54,-9.6,0.25,10.23
4.246030807495117,-3.58,-9.51,0.36,10.16
4.279726982116699,-3.45,-9.42,0.41,10.04
4.281434059143066,-3.12,-9.43,0.29,9.93
4.2824718952178955,-2.66,-9.54,0.08,9.9
4.28542685508728,-2.06,-9.72,-0.08,9.93
4.295625925064087,-1.54,-9.91,-0.17,10.03
4.305546760559082,-1.12,-10.08,-0.15,10.14
4.3158838748931885,-0.66,-10.16,-0.12,10.18
4.32594895362854,-0.28,-10.1,-0.08,10.1
4.335978031158447,0.18,-9.9,0.02,9.9
4.346549987792969,0.8,-9.55,0.09,9.58
4.379889965057373,1.51,-9.03,0.02,9.15
4.381526947021484,2.21,-8.36,-0.09,8.64
4.382411956787109,2.9,-7.6,-0.21,8.13
4.386091947555542,3.58,-6.82,-0.46,7.71
4.3962318897247314,4.23,-6.11,-0.76,7.47
4.406301021575928,4.72,-5.48,-0.92,7.29
4.416537761688232,5.07,-4.84,-0.89,7.06
4.426581859588623,5.35,-4.24,-0.92,6.88
4.43665075302124,5.41,-3.68,-0.98,6.61
4.44737696647644,5.31,-3.03,-1.01,6.19
4.483263969421387,5.13,-2.29,-1.01,5.7
4.48473596572876,4.89,-1.58,-0.94,5.22
4.485627889633179,4.65,-0.91,-0.99,4.84
4.487154960632324,4.35,-0.28,-1.08,4.49
4.496929883956909,4.1,0.32,-1.08,4.25
4.506985902786255,3.93,0.86,-1.1,4.17
4.517287969589233,3.82,1.35,-1.13,4.2
4.527472019195557,3.79,1.81,-1.27,4.38
4.53731894493103,3.76,2.19,-1.24,4.52
4.548054933547974,3.76,2.48,-0.98,4.6
4.580780029296875,3.78,2.73,-0.63,4.7
4.582426071166992,3.91,2.98,-0.35,4.92
4.583294868469238,4.17,3.27,-0.11,5.3
4.598308086395264,4.5,3.61,0.08,5.76
4.599197864532471,4.82,4.0,0.22,6.26
4.607676982879639,5.05,4.45,0.43,6.74
4.61789083480835,5.27,4.96,0.68,7.26
4.627858877182007,5.36,5.48,0.89,7.71
4.638034820556641,5.36,5.98,1.16,8.11
4.648730754852295,5.33,6.48,1.46,8.51
4.682390928268433,5.19,6.93,1.7,8.82
4.684024810791016,4.88,7.37,1.87,9.03
4.684915065765381,4.51,7.84,2.08,9.28
4.6979029178619385,4.25,8.27,2.24,9.56
4.698795795440674,3.91,8.65,2.28,9.76
4.708245754241943,3.7,9.0,2.21,9.97
4.718678951263428,3.58,9.3,1.99,10.16
4.729024887084961,3.5,9.55,1.69,10.31
4.738780975341797,3.51,9.77,1.38,10.47
4.749266862869263,3.65,9.88,1.09,10.58
4.782384872436523,3.84,9.88,0.84,10.63
4.783980846405029,4.09,9.81,0.6,10.64
4.78489089012146,4.29,9.73,0.32,10.63
4.797911882400513,4.6,9.55,0.04,10.6
4.798852920532227,5.0,9.24,-0.22,10.5
4.809035778045654,5.49,8.85,-0.55,10.42
4.819403886795044,5.99,8.46,-0.89,10.4
4.829229831695557,6.35,8.15,-1.19,10.4
4.839371919631958,6.58,7.85,-1.52,10.35
4.849956035614014,6.76,7.47,-1.79,10.23
4.882431983947754,7.03,6.89,-1.85,10.01
4.884129047393799,7.34,6.18,-1.75,9.75
4.8850579261779785,7.61,5.44,-1.6,9.49
4.897477865219116,7.89,4.68,-1.63,9.31
4.899646759033203,8.16,3.96,-1.84,9.25
4.90972900390625,8.18,3.37,-2.05,9.08
4.920122861862183,7.87,2.91,-2.03,8.63
4.930085897445679,7.37,2.51,-1.77,7.98
4.940093040466309,6.71,1.99,-1.47,7.15
4.950766086578369,6.17,1.27,-1.13,6.39
4.984374046325684,5.93,0.32,-0.87,6.0
4.986011028289795,5.92,-0.75,-0.71,6.0
4.986824035644531,6.09,-1.84,-0.64,6.39
4.997138023376465,6.42,-2.85,-0.69,7.05
5.000560760498047,6.75,-3.7,-0.94,7.75
5.010438919067383,6.97,-4.37,-1.28,8.32
5.02066707611084,7.18,-4.99,-1.63,8.89
5.03053092956543,7.16,-5.51,-2.13,9.28
5.040775775909424,6.9,-5.89,-2.47,9.4
5.051456928253174,6.55,-6.18,-2.41,9.32
5.08790397644043,6.13,-6.47,-2.15,9.16
5.089559078216553,5.67,-6.76,-1.87,9.01
5.090422868728638,5.42,-7.1,-1.49,9.05
5.09552788734436,5.33,-7.49,-1.24,9.27
5.101037979125977,5.09,-7.88,-1.19,9.45
5.1110639572143555,4.79,-8.24,-1.16,9.6
5.121368885040283,4.39,-8.54,-1.14,9.66
5.131280899047852,3.87,-8.76,-1.09,9.63
5.141729831695557,3.29,-8.93,-1.02,9.57
5.1521687507629395,2.7,-9.07,-0.9,9.5
5.183902740478516,2.18,-9.22,-0.78,9.5
5.185354948043823,1.73,-9.37,-0.7,9.55
5.186316013336182,1.31,-9.52,-0.65,9.63
5.19700288772583,0.84,-9.65,-0.54,9.7
5.2017130851745605,0.32,-9.68,-0.44,9.69
5.211775779724121,-0.19,-9.6,-0.37,9.6
5.2220139503479,-0.73,-9.48,-0.33,9.51
5.231993913650513,-1.27,-9.35,-0.27,9.43
5.242337942123413,-1.74,-9.27,-0.16,9.43
5.252627849578857,-2.18,-9.2,-0.09,9.45
5.285589933395386,-2.64,-9.11,-0.1,9.48
5.287243843078613,-3.07,-9.02,-0.12,9.52
5.288142919540405,-3.53,-8.89,-0.09,9.56
5.295445919036865,-3.96,-8.79,-0.01,9.64
5.302489757537842,-4.37,-8.76,0.04,9.78
5.31246280670166,-4.74,-8.75,0.02,9.95
5.322671890258789,-5.04,-8.76,-0.03,10.1
5.332856893539429,-5.28,-8.74,-0.02,10.21
5.342909812927246,-5.42,-8.75,0.01,10.29
5.353572845458984,-5.57,-8.74,0.09,10.36
5.386776924133301,-5.59,-8.65,0.14,10.3
5.388393878936768,-5.43,-8.59,0.11,10.16
5.389311790466309,-5.26,-8.54,-0.04,10.02
5.39588189125061,-4.95,-8.63,-0.2,9.95
5.403042793273926,-4.48,-8.84,-0.38,9.91
5.413261890411377,-3.88,-9.02,-0.44,9.82
5.423557758331299,-3.12,-9.07,-0.38,9.59
5.43355393409729,-2.09,-9.0,-0.22,9.24
5.443795919418335,-0.82,-8.9,-0.19,8.93
5.453810930252075,0.51,-8.74,-0.38,8.76
5.487256050109863,1.89,-8.35,-0.57,8.58
5.488903999328613,3.27,-7.64,-0.76,8.34
5.4897780418396,4.22,-6.61,-0.99,7.9
5.4944047927856445,4.94,-5.51,-1.07,7.47
5.5037407875061035,5.6,-4.69,-0.97,7.36
5.513676881790161,6.28,-4.26,-0.64,7.61
5.524169921875,7.02,-3.99,-0.17,8.07
5.534206867218018,7.93,-3.64,0.23,8.72
5.544242858886719,9.08,-3.12,0.44,9.61
5.554796934127808,10.31,-2.29,0.35,10.56
5.5885169506073,11.22,-1.18,-0.31,11.28
5.590109825134277,11.63,-0.04,-1.71,11.75
5.590986967086792,11.27,1.15,-3.15,11.75
5.594348907470703,10.16,2.4,-4.25,11.27
5.6045050621032715,8.58,3.73,-4.88,10.55
5.614421844482422,6.99,4.95,-5.03,9.93
5.625011920928955,5.59,5.84,-5.0,9.5
5.63489294052124,4.39,6.19,-4.95,9.06
5.64485502243042,3.3,6.0,-4.66,8.28
5.654989957809448,2.49,5.47,-4.26,7.36
5.688683032989502,2.07,4.75,-3.72,6.37
5.690273761749268,1.81,4.0,-3.22,5.44
5.691143035888672,1.55,3.48,-2.9,4.78
5.694990873336792,1.37,3.28,-2.64,4.42
5.705048084259033,1.22,3.24,-2.23,4.11
5.7152369022369385,1.0,3.14,-1.72,3.71
5.725574016571045,0.77,2.97,-1.16,3.28
5.735461950302124,0.48,2.79,-0.56,2.88
5.74551796913147,0.21,2.64,0.09,2.64
5.756485939025879,-0.1,2.65,0.7,2.74
5.790637016296387,-0.43,2.82,1.23,3.1
5.792312860488892,-0.67,3.13,1.69,3.61
5.793230056762695,-0.79,3.49,2.05,4.12
5.79557991027832,-0.77,3.85,2.38,4.59
5.80584192276001,-0.68,4.22,2.6,5.0
5.815732002258301,-0.46,4.54,2.7,5.3
5.825863838195801,-0.21,4.75,2.85,5.54
5.836043834686279,0.11,4.85,3.16,5.78
5.846205949783325,0.64,4.93,3.41,6.02
5.856268882751465,1.31,5.08,3.38,6.24
5.89018988609314,2.12,5.35,3.12,6.54
5.891811847686768,3.05,5.79,2.63,7.05
5.892749786376953,4.14,6.26,1.91,7.74
5.896282911300659,5.23,6.53,1.12,8.44
5.906518936157227,6.26,6.57,0.5,9.08
5.916374921798706,7.22,6.45,0.07,9.68
5.9267578125,8.03,6.29,-0.43,10.2
5.936837911605835,8.72,6.1,-1.03,10.69
5.946822881698608,9.25,5.83,-1.62,11.05
5.956837892532349,9.57,5.48,-2.12,11.22
5.991042852401733,9.62,5.17,-2.54,11.21
5.992661952972412,9.29,5.02,-3.02,10.98
5.993645906448364,8.52,5.02,-3.46,10.47
5.997018814086914,7.45,4.98,-3.55,9.63
6.007137775421143,6.37,4.65,-3.18,8.5
6.017093896865845,5.46,4.0,-2.54,7.22
6.027492046356201,4.85,3.07,-1.85,6.03
6.037373065948486,4.56,2.01,-1.3,5.15
6.0475287437438965,4.59,0.94,-0.92,4.77
6.058194875717163,4.92,-0.01,-0.74,4.97
6.091286897659302,5.32,-0.76,-0.79,5.43
6.093125820159912,5.67,-1.35,-0.96,5.9
6.094014883041382,5.97,-1.84,-1.17,6.35
6.097632884979248,6.04,-2.18,-1.47,6.58
6.107838869094849,5.73,-2.28,-1.74,6.4
6.1178178787231445,5.08,-2.21,-1.77,5.81
6.128111839294434,4.36,-2.21,-1.47,5.1
6.13838791847229,3.68,-2.42,-0.98,4.51
6.1482179164886475,3.07,-2.78,-0.5,4.17
6.158124923706055,2.62,-3.18,0.02,4.12
6.192270755767822,2.35,-3.58,0.4,4.3
6.193843841552734,2.0,-4.37,0.65,4.84
6.19474196434021,1.87,-5.11,0.93,5.52
6.198342800140381,1.73,-5.5,1.03,5.85
6.208463907241821,1.37,-5.8,1.0,6.04
6.218494892120361,1.06,-6.21,1.07,6.39
6.228756904602051,0.76,-6.5,1.2,6.65
6.238888740539551,0.41,-6.72,1.32,6.86
6.248889923095703,0.1,-6.93,1.48,7.08
6.258878946304321,-0.2,-7.17,1.59,7.34
6.293139934539795,-0.49,-7.4,1.6,7.58
6.294720888137817,-0.59,-7.32,1.56,7.5
6.2956438064575195,-0.89,-7.3,1.72,7.55
6.2990007400512695,-1.44,-7.46,1.72,7.78
6.309151887893677,-1.86,-7.56,1.66,7.96
6.319102764129639,-2.16,-7.54,1.63,8.01
6.329488754272461,-2.43,-7.62,1.53,8.14
6.339369773864746,-2.67,-7.86,1.47,8.43
6.349562883377075,-2.87,-8.16,1.5,8.77
6.360086917877197,-3.08,-8.4,1.6,9.08
6.394680023193359,-3.29,-8.54,1.72,9.31
6.396328926086426,-3.45,-8.63,1.81,9.46
6.397243976593018,-3.5,-8.62,1.82,9.47
6.3996429443359375,-3.52,-8.47,1.78,9.34
6.40984582901001,-3.45,-8.25,1.69,9.1
6.4198079109191895,-3.33,-8.08,1.46,8.86
6.429898738861084,-3.18,-7.93,1.24,8.63
6.440223932266235,-3.08,-7.81,1.03,8.45
6.450212001800537,-3.03,-7.69,0.96,8.32
6.460234880447388,-2.82,-7.64,1.01,8.2
6.492945909500122,-2.44,-7.61,1.02,8.05
6.494544982910156,-1.94,-7.53,0.95,7.83
6.495481967926025,-1.43,-7.36,0.79,7.53
6.512136936187744,-0.91,-7.1,0.71,7.19
6.513072967529297,-0.38,-6.7,0.77,6.75
6.520535945892334,-0.01,-6.08,0.8,6.13
6.530869960784912,0.27,-5.32,0.82,5.38
6.5407867431640625,0.56,-4.54,0.86,4.65
6.5508880615234375,0.89,-3.91,0.83,4.09
6.561646938323975,1.19,-3.53,0.81,3.81
6.594990968704224,1.55,-3.25,0.82,3.69
6.5965659618377686,1.91,-2.99,0.7,3.61
6.597462892532349,2.14,-2.72,0.49,3.49
6.612094879150391,2.32,-2.39,0.32,3.34
6.612973928451538,2.43,-2.01,0.17,3.15
6.621191024780273,2.56,-1.66,-0.06,3.05
6.631501913070679,2.62,-1.27,-0.36,2.93
6.641442775726318,2.63,-0.83,-0.69,2.84
6.651573896408081,2.73,-0.38,-1.01,2.93
6.661541938781738,2.86,0.05,-1.37,3.17
6.696027755737305,2.93,0.49,-1.78,3.46
6.697690963745117,3.0,0.95,-2.09,3.77
6.6985907554626465,3.02,1.35,-2.25,4.0
6.711854934692383,2.98,1.71,-2.29,4.12
6.712796926498413,2.94,2.03,-2.31,4.25
6.721909046173096,2.85,2.29,-2.28,4.3
6.732195854187012,2.77,2.5,-2.22,4.34
6.742121934890747,2.73,2.63,-2.08,4.32
6.7522687911987305,2.71,2.73,-1.92,4.29
6.762229919433594,2.68,2.83,-1.78,4.28
6.796706914901733,2.57,2.97,-1.62,4.24
6.7982940673828125,2.4,3.16,-1.39,4.2
6.799210071563721,2.22,3.41,-1.12,4.22
6.811763763427734,2.0,3.66,-0.88,4.26
6.812726974487305,1.84,3.91,-0.72,4.38
6.822560787200928,1.7,4.1,-0.66,4.48
6.832931041717529,1.59,4.22,-0.63,4.55
6.84311580657959,1.48,4.33,-0.6,4.61
6.852949857711792,1.34,4.52,-0.68,4.76
6.862933874130249,1.17,4.78,-0.89,5.0
6.897133827209473,0.94,5.09,-1.0,5.27
6.898706912994385,0.79,5.38,-1.08,5.54
6.8996148109436035,0.71,5.68,-1.2,5.84
6.911433935165405,0.76,5.89,-1.35,6.09
6.913217067718506,0.95,5.97,-1.49,6.22
6.923192024230957,1.28,5.94,-1.63,6.29
6.933443069458008,1.74,5.89,-1.75,6.38
6.94370698928833,2.33,5.86,-1.93,6.59
6.9536309242248535,3.02,5.74,-2.16,6.83
6.963791847229004,3.76,5.4,-2.3,6.97
6.998503923416138,4.52,4.93,-2.38,7.09
7.000098943710327,5.15,4.61,-2.5,7.35
7.0009849071502686,5.6,4.55,-2.65,7.68
7.011754035949707,6.04,4.52,-2.83,8.05
7.0138099193573,6.49,4.32,-2.95,8.33
7.023910999298096,6.93,4.0,-2.93,8.52
7.03425407409668,7.28,3.7,-2.89,8.66
7.044126987457275,7.35,3.58,-2.9,8.67
7.0542919635772705,7.12,3.64,-2.87,8.49
7.064831733703613,6.54,3.8,-2.77,8.05
7.0980589389801025,5.7,3.95,-2.56,7.39
7.099671840667725,4.84,3.95,-2.18,6.61
7.10052490234375,4.06,3.75,-1.75,5.79
7.111224889755249,3.49,3.25,-1.3,4.94
7.114660739898682,3.22,2.38,-0.75,4.07
7.124774932861328,3.1,1.35,-0.35,3.39
7.1347949504852295,3.1,0.41,-0.14,3.13
7.14498496055603,3.26,-0.38,-0.08,3.28
7.154987812042236,3.51,-1.03,-0.2,3.66
7.165592908859253,3.76,-1.57,-0.36,4.09
7.20006799697876,3.79,-1.93,-0.54,4.28
7.201573848724365,3.7,-2.13,-0.59,4.3
7.2024970054626465,3.42,-2.19,-0.51,4.09
7.210286855697632,2.94,-2.2,-0.31,3.68
7.21526575088501,2.47,-2.19,-0.05,3.3
7.225217819213867,2.13,-2.29,0.21,3.13
7.23554801940918,1.93,-2.47,0.32,3.15
7.245686054229736,1.8,-2.69,0.38,3.25
7.255622863769531,1.78,-2.94,0.48,3.47
7.266155958175659,1.86,-3.21,0.45,3.73
7.300839900970459,1.98,-3.51,0.3,4.04
7.302469968795776,2.11,-3.78,0.2,4.33
7.303297996520996,2.22,-4.07,0.17,4.63
7.310603857040405,2.18,-4.36,0.21,4.87
7.315931797027588,1.98,-4.68,0.34,5.09
7.32595682144165,1.8,-5.12,0.57,5.45
7.336318016052246,1.57,-5.58,0.81,5.85
7.346577882766724,1.31,-5.98,1.02,6.2
7.356400012969971,1.08,-6.32,1.2,6.52
7.36713981628418,0.89,-6.65,1.32,6.83
7.402318954467773,0.61,-6.98,1.48,7.16
7.403949737548828,0.33,-7.28,1.65,7.47
7.404829978942871,0.05,-7.61,1.72,7.8
7.407949924468994,-0.24,-7.92,1.67,8.09
7.416589736938477,-0.49,-8.17,1.52,8.32
7.426613807678223,-0.78,-8.37,1.34,8.51
7.436700820922852,-1.11,-8.47,1.2,8.62
7.44687294960022,-1.45,-8.49,1.06,8.67
7.456930875778198,-1.79,-8.45,0.85,8.67
7.466907978057861,-2.05,-8.44,0.54,8.7
7.500909805297852,-2.05,-8.56,0.22,8.8
7.5024049282073975,-1.74,-8.9,-0.13,9.06
7.503385066986084,-1.47,-9.35,-0.52,9.47
7.508666038513184,-1.61,-9.49,-0.8,9.65
7.517266750335693,-2.04,-9.23,-0.76,9.48
7.527266979217529,-2.43,-8.81,-0.56,9.15
7.537535905838013,-2.65,-8.57,-0.43,8.98
7.547515869140625,-2.79,-8.46,-0.38,8.91
7.557690858840942,-2.9,-8.16,-0.26,8.66
7.568203926086426,-3.09,-7.6,-0.08,8.2
7.600867748260498,-3.27,-6.88,0.24,7.62
7.602511882781982,-3.34,-6.08,0.6,6.96
7.60339093208313,-3.28,-5.29,0.89,6.28
7.607938766479492,-2.97,-4.62,1.04,5.58
7.61801290512085,-2.41,-4.12,0.96,4.86
7.627974987030029,-1.69,-3.78,0.63,4.18
7.638258934020996,-0.8,-3.5,0.06,3.59
7.6482930183410645,0.07,-3.28,-0.71,3.35
7.658566951751709,0.86,-3.12,-1.5,3.56
7.669043064117432,1.45,-2.95,-2.29,4.0
7.702291011810303,1.62,-2.75,-2.87,4.29
7.703927993774414,1.52,-2.33,-3.06,4.13
7.70479679107666,1.26,-1.66,-3.0,3.65
7.708883762359619,0.78,-0.85,-3.0,3.21
7.718675851821899,0.37,-0.05,-3.2,3.22
7.728708744049072,0.2,0.6,-3.58,3.63
7.738924026489258,0.3,1.1,-4.02,4.17
7.74878191947937,0.58,1.46,-4.38,4.65
7.75926399230957,0.94,1.73,-4.61,5.01
7.769003868103027,1.37,1.92,-4.57,5.14
7.803966999053955,1.85,2.07,-4.31,5.12
7.805619955062866,2.36,2.16,-3.96,5.09
7.806540012359619,2.93,2.28,-3.64,5.19
7.8093180656433105,3.33,2.53,-3.37,5.37
7.819309949874878,3.57,2.95,-3.14,5.59
7.829470872879028,3.81,3.39,-2.77,5.8
7.83967399597168,4.12,3.84,-2.24,6.06
7.849527835845947,4.5,4.21,-1.65,6.37
7.85991096496582,4.78,4.51,-1.23,6.68
7.87047004699707,4.94,4.82,-0.99,6.97
7.9040069580078125,4.99,5.14,-0.87,7.21
7.905666828155518,4.87,5.43,-0.85,7.34
7.906588077545166,4.54,5.63,-0.97,7.29
7.910064935684204,3.92,5.77,-1.13,7.06
7.920015811920166,3.09,5.86,-1.34,6.75
7.929986000061035,2.22,5.88,-1.45,6.45
7.940217018127441,1.43,5.84,-1.43,6.18
7.950162887573242,0.71,5.79,-1.41,6.0
7.96031379699707,0.18,5.69,-1.45,5.87
7.971013069152832,-0.07,5.51,-1.5,5.71
8.002977848052979,0.04,5.17,-1.6,5.41
8.004677772521973,0.39,4.69,-1.83,5.04
8.005559921264648,0.9,4.11,-2.05,4.68
8.010526895523071,1.44,3.54,-2.14,4.38
8.020617961883545,1.94,3.06,-2.17,4.22
8.030632019042969,2.37,2.63,-2.17,4.15
8.040936946868896,2.65,2.24,-2.08,4.04
8.050893783569336,2.81,1.97,-1.74,3.84
8.061048984527588,3.1,1.71,-1.32,3.77
8.072028875350952,3.46,1.38,-1.01,3.85
8.104389905929565,3.67,1.12,-0.71,3.9
8.105978965759277,3.52,1.26,-0.25,3.74
8.106945991516113,3.16,1.74,0.33,3.62
8.111178874969482,2.89,2.17,0.82,3.7
8.121466875076294,2.7,2.39,1.15,3.78
8.131409883499146,2.59,2.39,1.53,3.84
8.141763925552368,2.65,2.11,2.18,4.02
8.151816844940186,2.71,1.7,2.84,4.27
8.161678791046143,2.94,1.24,3.3,4.59
8.171741962432861,3.39,0.69,3.42,4.86
8.205896854400635,3.74,0.33,3.32,5.01
8.207489967346191,3.9,0.27,3.28,5.1
8.208384037017822,3.85,0.4,3.43,5.17
8.211802005767822,3.75,0.54,3.72,5.3
8.222025871276855,3.84,0.53,4.08,5.62
8.232017993927002,4.15,0.36,4.34,6.01
8.242353916168213,4.68,-0.1,4.5,6.49
8.25227689743042,5.17,-0.52,4.77,7.05
8.262618064880371,5.44,-0.56,5.1,7.47
8.272368907928467,5.59,-0.48,5.48,7.84
8.307150840759277,5.57,-0.44,5.94,8.15
8.30870795249939,5.34,-0.44,6.4,8.34
8.309560775756836,5.01,-0.46,6.82,8.47
8.312741756439209,4.78,-0.55,7.12,8.59
8.322728872299194,4.47,-0.58,7.21,8.5
8.33268690109253,4.12,-0.46,7.12,8.23
8.343018054962158,3.86,-0.36,7.13,8.11
8.353188037872314,3.68,-0.35,7.28,8.16
8.36320185661316,3.62,-0.42,7.35,8.2
8.373174905776978,3.71,-0.53,7.27,8.17
8.408045768737793,3.69,-0.61,7.11,8.03
8.409639835357666,3.4,-0.61,6.94,7.75
8.41048002243042,2.95,-0.5,6.78,7.41
8.426055908203125,2.44,-0.3,6.66,7.09
8.427011966705322,2.13,-0.05,6.44,6.78
8.43336296081543,2.13,0.18,6.01,6.37
8.443562984466553,2.49,0.31,5.55,6.09
8.453773021697998,2.84,0.2,5.33,6.04
8.46384596824646,2.86,0.02,5.07,5.82
8.474403858184814,2.91,0.03,4.73,5.55
8.509203910827637,2.82,0.19,4.49,5.3
8.510820865631104,2.71,0.23,4.34,5.12
8.511703968048096,2.72,0.11,4.17,4.97
8.526325941085815,2.64,-0.02,3.86,4.67
8.527270793914795,2.54,-0.04,3.57,4.38
8.533971786499023,2.47,0.11,3.41,4.21
8.544266939163208,2.43,0.31,3.25,4.06
8.55425500869751,2.55,0.42,3.01,3.96
8.564446926116943,2.76,0.44,2.65,3.85
8.574972867965698,2.89,0.37,2.25,3.68
8.608530044555664,2.92,0.3,1.84,3.46
8.61008596420288,2.8,0.28,1.51,3.19
8.610986948013306,2.65,0.35,1.18,2.92
8.625991821289062,2.48,0.36,1.03,2.7
8.626920938491821,2.22,0.25,0.99,2.44
8.63461685180664,2.1,0.12,0.82,2.25
8.644614934921265,2.03,-0.01,0.57,2.1
8.65488886833191,1.8,-0.16,0.35,1.84
8.665045738220215,1.55,-0.32,0.29,1.6
8.675182819366455,1.18,-0.48,0.3,1.3
8.709260940551758,0.74,-0.63,0.24,1.0
8.710838794708252,0.32,-0.79,0.11,0.85
8.711719989776611,-0.04,-1.0,0.04,1.0
8.725867748260498,-0.36,-1.23,0.1,1.28
8.726780891418457,-0.61,-1.4,0.15,1.53
8.735349893569946,-0.8,-1.59,0.12,1.78
8.745558738708496,-1.01,-1.73,0.06,2.0
8.755600929260254,-1.25,-1.76,0.04,2.15
8.765923023223877,-1.48,-1.77,0.05,2.3
8.775999069213867,-1.67,-1.77,0.05,2.43
8.810711860656738,-1.77,-1.85,0.02,2.56
8.812324047088623,-1.62,-2.03,-0.06,2.59
8.813216924667358,-1.44,-2.24,-0.1,2.66
8.82565689086914,-1.27,-2.41,-0.04,2.72
8.82659387588501,-1.11,-2.5,0.07,2.73
8.836124897003174,-0.98,-2.48,0.21,2.67
8.846179008483887,-0.85,-2.41,0.41,2.58
8.856310844421387,-0.62,-2.4,0.59,2.54
8.866486072540283,-0.33,-2.54,0.69,2.65
8.876430034637451,-0.19,-2.81,0.68,2.89
8.910545825958252,-0.3,-3.05,0.63,3.12
8.912147045135498,-0.48,-3.24,0.69,3.34
8.913055896759033,-0.67,-3.53,0.76,3.67
8.925606966018677,-1.11,-4.02,0.47,4.19
8.926673889160156,-1.67,-4.47,-0.04,4.77
8.93671703338623,-2.3,-4.86,-0.47,5.39
8.94681978225708,-3.08,-5.02,-0.8,5.94
8.956953048706055,-3.78,-4.88,-0.91,6.23
8.967082977294922,-4.21,-4.57,-0.76,6.25
8.977084875106812,-4.29,-4.3,-0.58,6.1
9.011636734008789,-4.02,-4.22,-0.48,5.84
9.01321792602539,-3.36,-4.36,-0.52,5.52
9.014127969741821,-2.48,-4.57,-0.6,5.23
9.02537202835083,-1.61,-4.67,-0.67,4.98
9.027514934539795,-0.77,-4.47,-0.75,4.59
9.037596940994263,-0.1,-4.08,-0.8,4.15
9.04767894744873,0.47,-3.57,-0.65,3.65
9.057625770568848,0.98,-3.11,-0.41,3.28
9.067800045013428,1.5,-2.73,-0.17,3.11
9.07794189453125,2.0,-2.35,-0.07,3.08
9.112960815429688,2.42,-1.91,-0.05,3.08
9.114391803741455,2.79,-1.35,0.01,3.09
9.11534595489502,3.05,-0.77,0.05,3.14
9.125683784484863,3.2,-0.17,0.07,3.2
9.1281418800354,3.19,0.41,0.04,3.21
9.138394832611084,3.04,0.92,-0.03,3.17
9.148427963256836,2.85,1.38,0.02,3.16
9.158288955688477,2.61,1.77,0.08,3.15
9.168519973754883,2.43,2.09,0.2,3.21
9.179036855697632,2.24,2.35,0.2,3.25
9.213606834411621,2.0,2.64,0.0,3.31
9.21533989906311,1.71,2.91,-0.21,3.38
9.216250896453857,1.45,3.21,-0.42,3.54
9.223065853118896,1.12,3.5,-0.76,3.75
9.228859901428223,0.86,3.72,-1.05,3.95
9.238738059997559,0.65,3.96,-1.25,4.2
9.249070882797241,0.41,4.23,-1.44,4.48
9.259160041809082,0.19,4.44,-1.6,4.72
9.269207954406738,-0.02,4.64,-1.61,4.91
9.2796950340271,-0.19,4.82,-1.43,5.03
9.312810897827148,-0.36,4.98,-1.17,5.12
9.314404964447021,-0.47,5.07,-0.93,5.17
9.315319061279297,-0.42,5.12,-0.77,5.19
9.324052810668945,-0.22,5.14,-0.72,5.19
9.329422950744629,-0.07,5.13,-0.56,5.16
9.33944296836853,0.06,5.13,-0.19,5.13
9.349694967269897,0.21,5.21,0.18,5.21
9.359709739685059,0.32,5.26,0.47,5.29
9.369853973388672,0.44,5.28,0.76,5.35
9.37980604171753,0.59,5.31,1.05,5.44
9.414815902709961,0.79,5.33,1.3,5.54
9.4164879322052,1.11,5.3,1.5,5.61
9.417357921600342,1.62,5.44,1.57,5.88
9.425088882446289,2.34,5.42,1.35,6.05
9.430120944976807,2.73,5.25,1.15,6.02
9.44015884399414,3.06,5.28,1.12,6.2
9.450384855270386,3.28,5.4,1.19,6.42
9.46034288406372,3.5,5.39,1.13,6.52
9.470386028289795,3.77,5.15,1.02,6.46
9.481215000152588,4.1,4.78,0.96,6.37
9.51748275756836,4.49,4.48,0.84,6.39
9.519125938415527,4.88,4.37,0.75,6.59
9.519973754882812,5.35,4.36,0.67,6.93
9.522292852401733,5.91,4.31,0.58,7.33
9.530766010284424,6.5,4.11,0.53,7.7
9.540852069854736,7.17,3.88,0.52,8.16
9.550838947296143,7.75,3.64,0.35,8.56
9.561144828796387,7.88,3.4,0.04,8.58
9.571160793304443,7.55,3.21,-0.26,8.2
9.581119060516357,6.82,3.12,-0.55,7.51
9.616363048553467,6.01,3.08,-0.86,6.8
9.617907047271729,5.24,2.89,-1.14,6.09
9.61879301071167,4.59,2.48,-1.31,5.37
9.622127056121826,4.28,1.75,-1.54,4.87
9.631491899490356,4.39,0.77,-1.44,4.68
9.64137077331543,4.89,-0.18,-1.02,4.99
9.651673793792725,5.5,-1.13,-1.01,5.7
9.661699771881104,6.12,-2.22,-1.11,6.6
9.671918869018555,6.65,-3.28,-0.97,7.47
9.682415962219238,6.77,-4.12,-0.57,7.94
9.716935873031616,6.69,-4.55,-0.45,8.1
9.718554973602295,6.32,-4.65,-1.05,7.91
9.719429969787598,5.73,-4.56,-1.44,7.46
9.72239875793457,5.13,-4.62,-1.16,7.0
9.73210597038269,4.53,-5.04,-0.66,6.8
9.742101907730103,4.13,-5.61,-0.35,6.97
9.752708911895752,3.82,-6.2,-0.22,7.28
9.762438774108887,3.51,-6.73,-0.05,7.59
9.7725248336792,3.24,-7.18,0.11,7.87
9.783071041107178,2.9,-7.46,0.05,8.0
9.816802978515625,2.5,-7.61,-0.21,8.01
9.818444967269897,2.07,-7.73,-0.48,8.01
9.81921100616455,1.64,-7.88,-0.7,8.07
9.8227379322052,1.19,-8.09,-0.82,8.21
9.832799911499023,0.76,-8.27,-0.74,8.33
9.842983961105347,0.41,-8.44,-0.56,8.46
9.853196859359741,0.16,-8.62,-0.45,8.63
9.863128900527954,-0.03,-8.78,-0.5,8.79
9.873239994049072,-0.24,-8.88,-0.69,8.91
9.883153915405273,-0.47,-8.93,-0.89,8.98
9.918181896209717,-0.73,-8.9,-1.03,8.98
9.919663906097412,-1.04,-8.82,-1.14,8.95
9.920602798461914,-1.35,-8.73,-1.19,8.91
9.923322916030884,-1.66,-8.68,-1.24,8.92
9.933428764343262,-1.95,-8.66,-1.29,8.97
9.943572998046875,-2.17,-8.65,-1.33,9.01
9.953749895095825,-2.3,-8.7,-1.38,9.1
9.963757991790771,-2.37,-8.8,-1.46,9.22
9.973981857299805,-2.5,-8.87,-1.56,9.34
9.984715938568115,-2.65,-8.9,-1.66,9.43
10.017957925796509,-2.87,-8.88,-1.74,9.49
10.01954984664917,-3.14,-8.88,-1.77,9.58
10.020380020141602,-3.33,-8.92,-1.75,9.68
10.023972034454346,-3.45,-8.95,-1.74,9.74
10.034249782562256,-3.53,-8.95,-1.74,9.77
10.04423475265503,-3.6,-8.86,-1.77,9.72
10.054210901260376,-3.67,-8.81,-1.84,9.71
10.064527034759521,-3.71,-8.82,-1.78,9.73
10.074629783630371,-3.53,-8.92,-1.57,9.72
10.084555864334106,-3.14,-9.11,-1.23,9.71
10.11829686164856,-2.64,-9.22,-0.91,9.63
10.119840860366821,-2.0,-9.1,-0.76,9.34
10.120748043060303,-1.25,-8.72,-0.77,8.84
10.124732971191406,-0.59,-8.1,-0.81,8.16
10.13477087020874,0.03,-7.35,-0.59,7.37
10.144747734069824,0.71,-6.57,-0.25,6.61
10.155076026916504,1.53,-5.89,-0.14,6.08
10.165157794952393,2.46,-5.3,-0.2,5.84
10.17524790763855,3.52,-4.86,-0.17,6.0
10.18528699874878,4.5,-4.56,0.09,6.4
10.219235897064209,5.39,-4.2,0.35,6.84
10.220781803131104,6.22,-3.79,0.42,7.29
10.221683025360107,6.88,-3.31,0.2,7.63
10.225334882736206,7.29,-2.68,-0.13,7.76
10.235483884811401,7.43,-1.88,-0.36,7.67
10.245662927627563,7.38,-1.04,-0.52,7.47
10.25577187538147,7.26,-0.27,-0.64,7.29
10.266012907028198,7.13,0.47,-0.66,7.17
10.27595591545105,7.09,1.15,-0.54,7.2
10.286582946777344,7.05,1.73,-0.42,7.27
10.319918870925903,6.97,2.3,-0.41,7.35
10.321547031402588,6.94,2.85,-0.37,7.51
10.32243299484253,6.91,3.4,-0.26,7.7
10.326020956039429,6.82,3.89,-0.08,7.85
10.336260795593262,6.57,4.31,0.13,7.85
10.346137046813965,6.1,4.74,0.37,7.73
10.356554985046387,5.65,5.2,0.57,7.69
10.366683006286621,5.24,5.52,0.57,7.63
10.376587867736816,4.65,5.75,0.54,7.41
10.3871328830719,4.1,6.03,0.56,7.31
10.420839786529541,3.65,6.26,0.57,7.26
10.42267894744873,3.18,6.45,0.5,7.2
10.423670768737793,2.71,6.58,0.48,7.13
10.426668882369995,2.28,6.7,0.52,7.09
10.436938762664795,1.99,6.85,0.52,7.15
10.446921825408936,1.7,7.0,0.46,7.21
10.457152843475342,1.34,7.18,0.36,7.31
10.467220783233643,1.04,7.36,0.38,7.44
10.477150917053223,0.87,7.49,0.46,7.55
10.487217903137207,0.7,7.66,0.53,7.71
10.520320892333984,0.63,7.79,0.73,7.84
10.521848917007446,0.67,7.89,0.98,7.97
10.522743940353394,0.85,7.95,1.21,8.08
10.527438879013062,1.22,8.03,1.49,8.25
10.537572860717773,1.77,8.12,1.77,8.49
10.547450065612793,2.48,8.15,1.95,8.73
10.55784797668457,3.28,8.13,2.1,9.01
10.568036079406738,4.29,8.09,2.18,9.41
10.577953815460205,5.31,7.94,2.09,9.77
10.587966918945312,6.26,7.75,1.99,10.15
10.621121883392334,7.03,7.6,1.94,10.53
10.622678756713867,7.58,7.52,1.99,10.86
10.623594760894775,8.03,7.39,2.0,11.09
10.638838768005371,8.5,7.18,1.89,11.28
10.639700889587402,9.01,6.87,1.77,11.46
10.648190975189209,9.47,6.49,1.63,11.59
10.658443927764893,9.72,6.15,1.33,11.57
10.668392896652222,9.65,5.8,0.96,11.29
10.678627967834473,9.2,5.43,0.6,10.69
10.688583850860596,8.46,5.08,0.31,9.87
10.723301887512207,7.59,4.59,0.16,8.87
10.724801063537598,6.86,3.88,0.05,7.88
10.725742816925049,6.38,2.94,-0.1,7.02
10.739946842193604,6.06,1.84,-0.22,6.33
10.740830898284912,5.94,0.8,-0.39,6.0
10.748924732208252,6.0,-0.12,-0.58,6.02
10.759087085723877,6.24,-0.91,-0.89,6.36
10.769219875335693,6.51,-1.64,-1.3,6.83
10.779387950897217,6.57,-2.27,-1.52,7.11
10.789308071136475,6.54,-2.76,-1.48,7.25
10.823852062225342,6.38,-3.12,-1.34,7.22
10.825425863265991,6.09,-3.42,-1.22,7.09
10.826377868652344,5.74,-3.72,-1.16,6.93
10.839611053466797,5.35,-4.01,-1.14,6.78
10.840540885925293,4.95,-4.24,-1.06,6.6
10.849583864212036,4.71,-4.57,-0.97,6.63
10.859925746917725,4.44,-5.01,-0.96,6.76
10.869793891906738,4.3,-5.43,-0.96,6.99
10.879923820495605,4.25,-5.89,-0.98,7.32
10.889980792999268,4.08,-6.37,-0.98,7.62
10.925981044769287,3.84,-6.88,-0.9,7.93
10.927648067474365,3.55,-7.32,-0.87,8.18
10.928513050079346,3.19,-7.67,-0.87,8.35
10.93950605392456,2.76,-7.91,-0.87,8.42
10.94025993347168,2.22,-8.07,-1.1,8.44
10.950185775756836,1.6,-8.2,-1.23,8.44
10.960327863693237,1.02,-8.36,-1.08,8.49
10.970439910888672,0.49,-8.46,-0.92,8.52
10.980658054351807,0.02,-8.55,-0.87,8.59
10.99061107635498,-0.31,-8.64,-0.92,8.69
11.024988889694214,-0.61,-8.74,-1.01,8.81
11.02653694152832,-0.93,-8.79,-1.07,8.9
11.027447938919067,-1.15,-8.82,-1.17,8.97
11.039517879486084,-1.29,-8.83,-1.37,9.02
11.040873050689697,-1.4,-8.83,-1.72,9.1
11.050908088684082,-1.54,-8.88,-2.03,9.23
11.061462879180908,-1.69,-8.94,-2.21,9.36
11.071125984191895,-1.9,-8.94,-2.36,9.43
11.081650733947754,-2.15,-8.92,-2.53,9.51
11.091953754425049,-2.35,-8.89,-2.69,9.58
11.12719988822937,-2.52,-8.84,-2.93,9.64
11.128811836242676,-2.59,-8.74,-3.29,9.69
11.12967300415039,-2.6,-8.58,-3.7,9.69
11.137614965438843,-2.55,-8.38,-4.26,9.74
11.141676902770996,-2.5,-8.28,-4.72,9.85
11.15152096748352,-2.6,-8.24,-4.89,9.92
11.161897897720337,-2.69,-8.15,-4.83,9.84
11.17186975479126,-2.59,-8.13,-4.68,9.73
11.182394027709961,-2.45,-8.29,-4.59,9.78
11.192781925201416,-2.29,-8.44,-4.5,9.83
11.228012084960938,-1.96,-8.4,-4.48,9.71
11.229609966278076,-1.65,-8.22,-4.52,9.52
11.230517864227295,-1.47,-7.88,-4.43,9.15
11.232361793518066,-1.56,-7.4,-3.86,8.49
11.242287874221802,-1.72,-6.8,-2.99,7.62
11.252291917800903,-1.91,-6.17,-2.25,6.83
11.262523889541626,-1.8,-5.63,-1.73,6.15
11.272603988647461,-1.36,-5.29,-1.37,5.63
11.282901763916016,-0.51,-5.13,-1.11,5.27
11.293223857879639,0.52,-5.13,-0.92,5.23
11.327284812927246,1.57,-5.12,-0.81,5.41
11.328886985778809,2.52,-5.07,-0.83,5.72
11.329810857772827,3.38,-4.94,-0.85,6.04
11.338943004608154,4.1,-4.52,-0.85,6.16
11.34296989440918,4.7,-3.97,-1.01,6.23
11.352962970733643,5.08,-3.78,-1.39,6.48
11.36325979232788,5.23,-3.6,-1.6,6.54
11.373170852661133,5.37,-3.16,-1.48,6.4
11.383362770080566,5.42,-2.44,-1.24,6.07
11.3938307762146,5.58,-1.65,-1.07,5.91
11.426509857177734,5.95,-0.9,-1.14,6.12
11.428217887878418,6.47,-0.11,-1.42,6.62
11.429136753082275,6.98,0.72,-1.58,7.19
11.439076900482178,7.34,1.54,-1.46,7.64
11.44368600845337,7.44,2.33,-1.2,7.88
11.453613758087158,7.44,2.98,-0.84,8.05
11.463980913162231,7.23,3.24,-0.42,7.93
11.47391390800476,6.79,3.45,0.09,7.61
11.483975887298584,6.35,3.87,0.4,7.44
11.494545936584473,5.88,4.33,0.57,7.32
11.531254768371582,5.4,4.66,0.62,7.15
11.532911777496338,4.88,4.85,0.63,6.9
11.533782958984375,4.3,4.96,0.68,6.59
11.536205768585205,3.77,5.04,0.73,6.33
11.544391870498657,3.24,5.12,0.79,6.11
11.554314851760864,2.71,5.21,0.93,5.94
11.564449787139893,2.27,5.32,1.05,5.87
11.57455587387085,1.92,5.46,1.04,5.88
11.584601879119873,1.63,5.63,0.89,5.92
11.594555854797363,1.39,5.8,0.8,6.01
11.628108978271484,1.21,5.94,0.82,6.11
11.629679918289185,1.17,6.06,0.93,6.24
11.630592823028564,1.27,6.1,1.05,6.31
11.63672399520874,1.53,6.13,1.14,6.42
11.644904851913452,1.93,6.26,1.33,6.68
11.65497875213623,2.48,6.48,1.62,7.12
11.665288925170898,3.23,6.69,1.87,7.66
11.675204753875732,4.06,6.86,1.86,8.18
11.685380935668945,4.93,6.91,1.59,8.63
11.695878982543945,5.97,6.84,1.43,9.19
11.729207992553711,6.86,6.79,1.44,9.75
11.73086404800415,7.45,6.94,1.44,10.28
11.731663942337036,7.8,7.24,1.33,10.72
11.737375736236572,8.05,7.45,1.02,11.01
11.745642900466919,8.44,7.43,0.6,11.26
11.755693912506104,8.86,7.22,0.18,11.43
11.765912055969238,8.95,7.02,-0.18,11.37
11.775970935821533,8.67,6.99,-0.48,11.14
11.78601598739624,7.93,7.1,-0.76,10.67
11.795992851257324,7.02,7.16,-1.01,10.07
11.830674886703491,6.1,6.98,-1.21,9.34
11.83229684829712,5.22,6.59,-1.23,8.49
11.833173751831055,4.47,6.05,-1.07,7.59
11.8363618850708,3.93,5.32,-0.74,6.65
11.84635305404663,3.63,4.43,-0.65,5.76
11.856234073638916,3.61,3.63,-0.56,5.15
11.866428852081299,3.99,2.95,-0.35,4.97
11.876538753509521,4.77,2.22,-0.23,5.26
11.886728763580322,5.66,1.53,-0.33,5.87
11.896704912185669,6.39,0.89,-0.48,6.46
11.931798934936523,7.16,0.15,-0.57,7.18
11.93339204788208,7.68,-0.68,-0.68,7.73
11.934323787689209,7.82,-1.3,-0.52,7.94
11.936810970306396,7.84,-1.54,0.0,7.98
11.946958065032959,7.77,-1.66,0.6,7.96
11.956928968429565,7.61,-2.04,0.89,7.92
11.96727180480957,7.4,-2.67,0.77,7.9
11.977228879928589,7.11,-3.36,0.61,7.88
11.987377882003784,6.79,-4.02,0.72,7.92
11.997403860092163,6.42,-4.6,0.86,7.94
12.032407760620117,6.03,-5.19,0.91,8.0
12.034022808074951,5.81,-5.77,0.9,8.23
12.034954071044922,5.75,-6.38,0.98,8.64
12.037446022033691,5.57,-6.96,1.04,8.97
12.047709941864014,5.15,-7.43,0.88,9.08
12.057610034942627,4.66,-7.76,0.7,9.07
12.067904949188232,3.98,-7.96,0.52,8.91
12.07795786857605,2.95,-8.05,0.51,8.58
12.088145732879639,2.0,-8.15,0.73,8.42
12.097967863082886,1.26,-8.41,1.01,8.56
12.132184982299805,0.74,-8.8,1.32,8.92
12.133794784545898,0.35,-9.17,1.41,9.28
12.134700775146484,0.01,-9.39,1.33,9.48
12.138236045837402,-0.21,-9.48,1.2,9.55
12.148313999176025,-0.36,-9.56,1.03,9.62
12.158345937728882,-0.46,-9.61,0.66,9.64
12.16860580444336,-0.64,-9.62,0.38,9.64
12.178568840026855,-0.93,-9.63,0.38,9.68
12.188716888427734,-1.19,-9.68,0.41,9.76
12.199601888656616,-1.46,-9.8,0.31,9.91
12.23517894744873,-1.73,-9.96,0.07,10.1
12.236808776855469,-1.9,-10.03,-0.13,10.2
12.23771595954895,-1.99,-9.99,-0.29,10.19
12.239984035491943,-2.34,-9.91,-0.39,10.18
12.249038934707642,-2.64,-9.88,-0.13,10.22
12.259108066558838,-2.51,-9.87,0.26,10.18
12.269124984741211,-2.23,-9.83,0.45,10.08
12.279279947280884,-1.97,-9.81,0.37,10.01
12.289378881454468,-1.73,-9.72,0.17,9.87
12.299667835235596,-1.45,-9.56,0.0,9.66
12.333724975585938,-1.27,-9.42,-0.04,9.5
12.335308074951172,-1.24,-9.36,0.08,9.44
12.336266994476318,-1.2,-9.27,0.29,9.35
12.339581966400146,-1.1,-9.13,0.5,9.2
12.349953889846802,-0.97,-8.95,0.61,9.02
12.359632968902588,-0.91,-8.64,0.69,8.71
12.36974287033081,-0.77,-8.28,0.87,8.36
12.379995822906494,-0.5,-7.92,1.0,7.99
12.390032768249512,-0.15,-7.52,1.03,7.59
12.400021076202393,0.4,-7.16,0.92,7.22
12.43455982208252,1.21,-6.93,0.67,7.06
12.436147928237915,2.08,-6.79,0.29,7.1
12.437071800231934,2.87,-6.65,0.01,7.24
12.440206050872803,3.55,-6.43,-0.11,7.34
12.450293064117432,3.89,-6.02,-0.1,7.16
12.46035885810852,4.23,-5.41,-0.04,6.86
12.470577955245972,4.74,-4.68,-0.14,6.66
12.480562925338745,5.18,-4.13,-0.21,6.62
12.490729808807373,5.57,-3.71,-0.17,6.69
12.5016028881073,5.94,-3.32,-0.07,6.8
12.534567832946777,6.19,-2.84,0.09,6.81
12.5361647605896,6.29,-2.27,0.3,6.69
12.537071943283081,6.33,-1.64,0.46,6.55
12.54089879989624,6.26,-0.94,0.58,6.35
12.551354885101318,6.2,-0.22,0.8,6.25
12.56102705001831,6.35,0.43,0.83,6.41
12.571507930755615,6.5,0.89,0.78,6.6
12.5813307762146,6.6,1.26,0.87,6.77
12.591461896896362,6.68,1.6,1.07,6.95
12.601669788360596,6.44,2.06,1.29,6.88
12.636388778686523,6.15,2.56,1.38,6.8
12.637959003448486,5.82,3.0,1.41,6.69
12.638876914978027,5.24,3.42,1.42,6.41
12.653612852096558,4.59,3.82,1.32,6.11
12.654566764831543,3.98,4.3,1.19,5.97
12.66166090965271,3.5,4.8,1.09,6.03
12.671796798706055,3.16,5.19,1.06,6.16
12.681928873062134,2.91,5.46,0.93,6.25
12.692131996154785,2.69,5.72,0.73,6.36
12.70231294631958,2.53,5.97,0.58,6.5
12.73649787902832,2.4,6.23,0.34,6.68
12.738080024719238,2.37,6.58,0.18,6.99
12.738967895507812,2.36,6.9,0.25,7.29
12.753727912902832,2.22,7.21,0.43,7.55
12.754623889923096,2.26,7.52,0.68,7.88
12.762423992156982,2.73,7.76,1.06,8.29
12.772747993469238,3.32,7.96,1.28,8.71
12.782604932785034,3.62,8.24,1.33,9.09
12.792741775512695,3.97,8.54,1.4,9.52
12.802731990814209,4.4,8.77,1.47,9.92
12.837947845458984,4.81,8.88,1.71,10.24
12.839540958404541,5.17,8.93,1.88,10.48
12.84053373336792,5.59,9.02,1.89,10.77
12.853621006011963,5.68,9.07,1.95,10.87
12.85457992553711,5.65,8.99,2.3,10.86
12.86312985420227,5.99,8.76,2.81,10.97
12.873283863067627,6.63,8.42,2.91,11.1
12.883317947387695,7.28,8.07,2.62,11.17
12.893465042114258,7.72,7.67,2.22,11.1
12.904172897338867,7.9,7.15,2.03,10.84
12.937598943710327,7.67,6.51,1.78,10.21
12.939187049865723,7.07,5.99,1.39,9.37
12.94009780883789,6.13,5.76,0.95,8.46
12.953198909759521,4.94,5.62,0.84,7.52
12.954154968261719,4.19,5.28,0.83,6.79
12.96376085281372,3.99,4.68,0.72,6.19
12.974063873291016,4.23,3.94,0.41,5.79
12.984067916870117,4.73,3.16,0.56,5.71
12.994140863418579,5.31,2.39,0.85,5.88
13.004129886627197,5.98,1.53,1.05,6.26
13.03977108001709,6.48,0.66,1.6,6.7
13.041340827941895,6.75,-0.17,2.01,7.04
13.04227876663208,6.86,-1.04,2.19,7.27
13.052087783813477,6.77,-1.61,2.37,7.35
13.054311752319336,6.59,-2.02,2.16,7.22
13.064424991607666,6.14,-2.48,1.9,6.88
13.074842929840088,5.71,-2.78,1.69,6.57
13.084671974182129,5.27,-2.92,1.7,6.26
13.09484577178955,4.86,-3.22,1.67,6.06
13.104830741882324,4.55,-3.59,1.53,5.99
13.140892028808594,4.31,-4.07,1.72,6.17
13.142488956451416,4.12,-4.68,1.97,6.53
13.143386840820312,4.06,-5.25,2.07,6.95
13.152812004089355,3.93,-5.5,1.86,7.01
13.155212879180908,3.8,-5.8,1.92,7.19
13.165049076080322,3.72,-6.2,1.76,7.44
13.175288915634155,3.44,-6.54,1.3,7.5
13.185328960418701,2.98,-6.73,0.96,7.42
13.195679903030396,2.37,-6.84,0.63,7.26
13.20601487159729,1.69,-7.02,0.47,7.23
13.240011930465698,1.08,-7.27,0.41,7.36
13.24164891242981,0.54,-7.49,0.33,7.51
13.242555856704712,0.11,-7.67,0.27,7.67
13.245721817016602,-0.26,-7.91,0.27,7.91
13.255838871002197,-0.54,-8.16,0.21,8.18
13.265763759613037,-0.84,-8.29,0.08,8.33
13.276115894317627,-1.12,-8.31,-0.15,8.38
13.286098003387451,-1.15,-8.46,-0.5,8.55
13.29619288444519,-1.01,-8.77,-0.67,8.85
13.306704044342041,-0.91,-8.92,-1.02,9.02
13.341634750366211,-1.0,-8.91,-1.41,9.07
13.3432297706604,-1.13,-8.91,-1.76,9.15
13.344110012054443,-1.44,-8.86,-1.93,9.18
13.34974479675293,-1.84,-8.8,-1.98,9.2
13.356534957885742,-2.26,-8.72,-2.23,9.28
13.36638593673706,-2.58,-8.68,-2.52,9.39
13.376739978790283,-2.66,-8.74,-2.61,9.5
13.38671088218689,-2.65,-8.78,-2.73,9.56
13.396776914596558,-2.81,-8.76,-2.89,9.64
13.40733790397644,-2.86,-8.71,-2.82,9.59
13.442915916442871,-2.91,-8.63,-2.83,9.53
13.444530963897705,-2.93,-8.59,-2.94,9.54
13.445453882217407,-2.79,-8.61,-2.97,9.52
13.450157880783081,-2.6,-8.61,-2.86,9.43
13.45714282989502,-2.44,-8.51,-2.75,9.27
13.467052936553955,-2.34,-8.25,-2.64,8.97
13.477072954177856,-1.99,-7.95,-2.47,8.55
13.487459897994995,-1.67,-7.5,-2.14,7.97
13.497439861297607,-1.49,-6.92,-1.97,7.34
13.507446765899658,-1.28,-6.24,-1.98,6.67
13.54116678237915,-1.03,-5.7,-1.97,6.11
13.542813777923584,-0.63,-5.42,-1.72,5.72
13.543739795684814,-0.15,-5.15,-1.49,5.36
13.550639867782593,0.46,-5.0,-1.51,5.24
13.557759761810303,1.01,-4.98,-1.37,5.26
13.567791938781738,1.44,-4.84,-1.06,5.15
13.578288078308105,1.87,-4.6,-0.81,5.03
13.588085889816284,2.42,-4.3,-0.73,4.98
13.598118782043457,3.13,-4.06,-0.67,5.17
13.608741760253906,3.77,-3.87,-0.61,5.43
13.642735004425049,4.46,-3.68,-0.64,5.81
13.644415855407715,5.1,-3.35,-0.6,6.13
13.645262956619263,5.54,-2.76,-0.31,6.19
13.651141881942749,6.05,-2.12,-0.11,6.41
13.658516883850098,6.41,-1.49,0.14,6.58
13.668492794036865,6.44,-0.67,0.52,6.49
13.67897081375122,6.47,0.02,0.91,6.53
13.6887788772583,6.54,0.63,1.27,6.69
13.698981761932373,6.56,1.29,1.46,6.84
13.709478855133057,6.42,2.0,1.59,6.9
13.743838787078857,6.28,2.58,1.68,6.99
13.745475769042969,5.98,2.99,1.85,6.93
13.746315956115723,5.65,3.34,1.97,6.85
13.74895691871643,5.23,3.65,2.07,6.7
13.759085893630981,4.61,4.01,2.1,6.46
13.769176006317139,3.94,4.36,1.95,6.19
13.779339790344238,3.29,4.59,1.8,5.92
13.78940200805664,2.74,4.68,1.72,5.68
13.799562931060791,2.24,4.83,1.54,5.54
13.809979915618896,1.8,4.97,1.33,5.45
13.844752788543701,1.43,5.08,1.24,5.42
13.84642505645752,1.18,5.21,1.14,5.46
13.8472900390625,0.99,5.33,1.0,5.51
13.849693775177002,0.81,5.47,0.88,5.59
13.859912872314453,0.62,5.66,0.87,5.75
13.869956970214844,0.41,5.79,0.92,5.87
13.880462884902954,0.24,5.87,1.05,5.96
13.890160083770752,0.16,5.92,1.28,6.05
13.900246858596802,0.34,5.93,1.43,6.1
13.910153865814209,0.64,5.94,1.47,6.15
13.945894956588745,1.0,6.03,1.6,6.31
13.94744086265564,1.45,6.09,1.73,6.49
13.94835901260376,2.01,6.1,1.75,6.65
13.950296878814697,2.74,6.1,1.63,6.88
13.960437774658203,3.49,6.03,1.48,7.12
13.970546960830688,4.12,5.93,1.4,7.35
13.98061490058899,4.65,5.94,1.16,7.63
13.990782737731934,4.96,6.0,0.87,7.83
14.000823974609375,5.13,6.01,0.69,7.93
14.010811805725098,5.36,5.89,0.67,7.99
14.045804023742676,5.79,5.74,0.71,8.18
14.047389030456543,6.46,5.61,0.75,8.58
14.048327922821045,7.18,5.5,0.77,9.07
14.050978899002075,7.86,5.38,0.88,9.56
14.061219930648804,8.25,5.21,1.07,9.81
14.07117486000061,8.14,5.02,1.23,9.64
14.081433773040771,7.51,4.88,1.19,9.03
14.091474056243896,6.44,4.87,1.17,8.15
14.10150694847107,5.28,4.8,1.07,7.21
14.11155080795288,4.32,4.41,0.85,6.23
14.14627194404602,3.64,3.9,0.79,5.39
14.147831916809082,3.3,3.38,0.71,4.77
14.148732900619507,3.38,2.78,0.48,4.4
14.151691913604736,3.63,2.23,0.24,4.26
14.161763906478882,4.02,1.69,0.2,4.36
14.171828746795654,4.46,1.09,0.44,4.61
14.182182788848877,4.93,0.56,0.62,5.0
14.192142009735107,5.37,0.08,0.71,5.41
14.202189922332764,5.61,-0.37,0.79,5.67
14.212234020233154,5.61,-0.69,0.81,5.71
14.246202945709229,5.5,-0.98,0.9,5.65
14.247791767120361,5.34,-1.35,0.98,5.59
14.248734951019287,5.27,-1.79,1.01,5.65
14.252376079559326,5.34,-2.32,1.07,5.91
14.26253080368042,5.51,-2.9,1.17,6.33
14.272459983825684,5.77,-3.48,1.26,6.85
14.282859802246094,6.01,-4.05,1.34,7.37
14.293000936508179,6.14,-4.61,1.49,7.82
14.302924871444702,6.01,-5.12,1.7,8.07
14.312891960144043,5.8,-5.67,1.85,8.31
14.347685813903809,5.51,-6.26,2.03,8.58
14.349273920059204,5.08,-6.78,2.24,8.76
14.350199937820435,4.61,-7.24,2.35,8.89
14.353023052215576,4.1,-7.61,2.4,8.97
14.363075733184814,3.58,-7.97,2.42,9.06
14.373157024383545,3.12,-8.34,2.45,9.23
14.3835768699646,2.79,-8.71,2.43,9.46
14.393435955047607,2.43,-9.05,2.35,9.66
14.403566837310791,2.06,-9.33,2.27,9.82
14.41365385055542,1.79,-9.58,2.18,9.98
14.448984861373901,1.51,-9.79,2.0,10.1
14.450554847717285,1.16,-9.93,1.81,10.16
14.45143985748291,0.84,-10.04,1.65,10.2
14.45362377166748,0.53,-10.18,1.45,10.29
14.463880062103271,0.27,-10.3,1.3,10.38
14.473898887634277,-0.02,-10.41,1.24,10.48
14.483973979949951,-0.33,-10.49,1.15,10.55
14.494085788726807,-0.69,-10.51,0.97,10.57
14.504278898239136,-1.04,-10.49,0.84,10.57
14.514208793640137,-1.28,-10.47,0.68,10.56
14.548659801483154,-1.38,-10.48,0.38,10.57
14.550244808197021,-1.53,-10.51,0.13,10.62
14.551142930984497,-1.76,-10.45,0.04,10.59
14.55438494682312,-2.04,-10.34,-0.05,10.53
14.564503908157349,-2.27,-10.23,-0.17,10.48
14.574607849121094,-2.45,-10.17,-0.21,10.46
14.58486294746399,-2.59,-10.12,-0.22,10.44
14.594793796539307,-2.73,-10.01,-0.23,10.37
14.604956865310669,-2.81,-9.89,-0.3,10.28
14.614937782287598,-2.83,-9.74,-0.38,10.14
14.64994478225708,-2.78,-9.59,-0.47,9.99
14.651591777801514,-2.71,-9.4,-0.49,9.79
14.652481079101562,-2.58,-9.21,-0.55,9.58
14.667027950286865,-2.33,-9.07,-0.65,9.38
14.66796588897705,-1.82,-9.1,-0.73,9.3
14.675136089324951,-1.52,-9.07,-0.68,9.22
14.685415744781494,-1.39,-8.84,-0.54,8.96
14.695672988891602,-1.32,-8.61,-0.56,8.72
14.705598831176758,-1.28,-8.4,-0.54,8.51
14.715569972991943,-1.29,-8.1,-0.41,8.21
14.749016761779785,-1.19,-7.75,-0.15,7.84
14.750622749328613,-0.69,-7.43,-0.14,7.46
14.751471042633057,0.09,-7.05,-0.23,7.05
14.755794048309326,1.14,-6.59,-0.06,6.68
14.765896797180176,2.43,-6.13,0.24,6.59
14.775847911834717,3.54,-5.58,0.74,6.64
14.786273956298828,4.54,-4.87,1.52,6.82
14.796381950378418,5.56,-4.12,2.18,7.25
14.806189060211182,6.45,-3.29,2.43,7.63
14.816259860992432,7.01,-2.31,2.38,7.75
14.8510160446167,6.94,-1.32,2.31,7.43
14.85263991355896,6.54,-0.48,2.57,7.04
14.853591918945312,6.12,0.41,2.89,6.78
14.866873741149902,5.88,1.79,3.2,6.92
14.867771863937378,6.23,3.24,3.2,7.71
14.876592874526978,6.87,4.03,3.11,8.55
14.886667966842651,7.66,4.75,3.17,9.55
14.896760940551758,8.05,5.53,2.95,10.2
14.906935930252075,8.17,6.24,2.6,10.6
14.916903018951416,8.08,6.9,2.44,10.9
14.951571941375732,7.9,7.33,1.88,10.93
14.953203916549683,7.93,7.75,1.09,11.14
14.954081058502197,7.89,7.95,0.4,11.2
14.966716766357422,7.44,7.97,-0.15,10.9
14.967674732208252,6.79,7.94,-0.45,10.45
14.977200031280518,6.24,7.54,-0.9,9.82
14.98741102218628,5.78,6.95,-0.89,9.08
14.997559070587158,5.57,6.24,-0.8,8.4
15.007646083831787,5.53,5.31,-1.03,7.73
15.017523765563965,5.51,4.37,-1.59,7.21
15.052733898162842,5.24,3.43,-2.0,6.57
15.054296970367432,4.7,2.76,-2.28,5.9
15.055209875106812,4.05,2.2,-2.59,5.28
15.066214084625244,3.43,1.63,-2.63,4.61
15.067847967147827,3.01,1.13,-2.48,4.06
15.077887058258057,2.76,0.66,-2.31,3.65
15.088245868682861,2.79,0.13,-2.1,3.49
15.09826374053955,3.05,-0.48,-1.75,3.54
15.10824203491211,3.38,-1.1,-1.34,3.79
15.118263959884644,3.62,-1.6,-0.97,4.07
15.153679847717285,3.75,-2.04,-0.55,4.3
15.155333995819092,3.69,-2.36,-0.09,4.38
15.156253814697266,3.41,-2.57,0.45,4.29
15.16623592376709,3.18,-2.76,0.86,4.29
15.168648958206177,2.95,-2.89,1.11,4.27
15.178518772125244,2.64,-2.84,1.41,4.12
15.188882827758789,2.26,-2.88,1.74,4.05
15.198925018310547,1.84,-3.02,2.15,4.13
15.20950174331665,1.55,-3.24,2.43,4.33
15.219493865966797,1.27,-3.6,2.69,4.67
15.254309892654419,1.08,-4.08,3.06,5.21
15.255944967269897,1.06,-4.67,3.41,5.87
15.256900787353516,1.06,-5.34,3.71,6.58
15.264255046844482,1.05,-6.04,3.95,7.29
15.269333839416504,1.05,-6.74,4.16,7.98
15.279300928115845,1.06,-7.48,4.11,8.6
15.289630889892578,1.02,-8.0,4.31,9.14
15.299582958221436,0.62,-8.32,4.47,9.46
15.309783935546875,-0.08,-8.74,4.59,9.87
15.32035493850708,-0.63,-8.74,4.93,10.05
15.355938911437988,-1.24,-8.67,5.07,10.11
15.357558965682983,-1.82,-8.61,4.89,10.06
15.358553886413574,-2.29,-8.44,4.66,9.9
15.364809036254883,-2.69,-8.32,4.26,9.72
15.370122909545898,-3.04,-8.25,3.65,9.51
15.379909038543701,-3.27,-8.02,3.17,9.22
15.390244960784912,-3.43,-7.98,2.5,9.03
15.400217056274414,-3.53,-8.15,1.57,9.01
15.410257816314697,-3.8,-8.21,0.82,9.08
15.42103886604309,-4.29,-7.95,0.28,9.03
15.456254005432129,-4.7,-7.51,-0.2,8.86
15.457908868789673,-4.85,-7.08,-0.7,8.61
15.45875597000122,-4.83,-6.67,-1.27,8.33
15.460433006286621,-4.57,-6.47,-1.79,8.12
15.470623016357422,-4.11,-6.44,-2.33,7.98
15.480484008789062,-3.77,-6.23,-2.81,7.8
15.490964889526367,-3.43,-5.72,-3.09,7.35
15.500793933868408,-3.05,-5.18,-3.39,6.9
15.510952949523926,-2.61,-4.63,-3.47,6.34
15.520857810974121,-2.06,-4.0,-3.21,5.52
15.55616807937622,-1.33,-3.44,-3.0,4.75
15.557775020599365,-0.47,-3.0,-2.78,4.11
15.558663845062256,0.51,-2.47,-2.49,3.54
15.563786029815674,1.62,-1.96,-2.37,3.47
15.571269035339355,2.76,-1.43,-2.41,3.93
15.581387996673584,3.85,-0.86,-2.61,4.73
15.591670989990234,4.64,-0.19,-2.91,5.48
15.601639747619629,5.22,0.53,-3.06,6.07
15.61173391342163,5.76,1.24,-3.12,6.66
15.62223482131958,6.12,1.98,-3.32,7.23
15.656406879425049,6.55,2.54,-3.53,7.86
15.658050060272217,6.87,3.0,-3.66,8.34
15.658926963806152,7.0,3.45,-3.88,8.71
15.663694858551025,6.82,3.89,-4.16,8.88
15.672015905380249,6.42,4.32,-4.26,8.83
15.681891918182373,5.76,4.73,-4.21,8.56
15.692155838012695,4.98,5.01,-4.18,8.2
15.702215909957886,4.17,5.21,-4.11,7.83
15.712329864501953,3.37,5.44,-4.01,7.55
15.722287893295288,2.52,5.92,-3.72,7.43
15.757056951522827,1.81,6.33,-4.0,7.7
15.758594036102295,1.19,6.36,-4.23,7.73
15.75946593284607,0.33,6.6,-3.71,7.57
15.762474060058594,-0.44,6.77,-3.19,7.49
15.772564888000488,-1.06,6.83,-2.8,7.45
15.782532930374146,-1.48,6.97,-2.38,7.51
15.79270887374878,-1.58,7.04,-1.96,7.47
15.80292797088623,-1.6,7.09,-1.4,7.4
15.812993049621582,-1.41,7.14,-0.72,7.31
15.823022842407227,-0.91,7.16,0.0,7.21
15.857861042022705,-0.12,7.04,0.53,7.06
15.859468936920166,0.85,6.98,1.04,7.1
15.860339879989624,2.01,6.93,1.48,7.36
15.863203048706055,3.39,6.79,1.92,7.82
15.873291969299316,5.07,6.4,2.38,8.5
15.883193016052246,6.7,6.0,2.68,9.38
15.893619060516357,7.89,5.85,3.06,10.28
15.90349292755127,8.77,5.93,3.49,11.14
15.913657903671265,9.42,6.16,3.77,11.86
15.923655986785889,9.88,6.47,3.82,12.41
15.958077907562256,10.21,6.77,3.79,12.82
15.959634780883789,10.43,7.01,3.75,13.11
15.960506916046143,10.39,7.06,3.52,13.04
15.963808059692383,10.3,7.09,3.3,12.93
15.973855018615723,10.26,7.06,2.44,12.69
15.984024047851562,10.34,6.77,1.82,12.49
15.99428391456604,10.42,6.07,1.72,12.18
16.004308938980103,10.55,5.06,1.73,11.82
16.01454782485962,10.74,3.93,1.9,11.59
16.02437400817871,11.03,2.73,2.27,11.58
16.0589599609375,11.28,1.43,2.7,11.68
16.060544967651367,11.52,0.12,3.17,11.94
16.061404943466187,11.95,-1.27,3.62,12.55
16.065104007720947,12.48,-2.74,3.9,13.35
16.07464075088501,12.97,-4.0,3.93,14.13
16.084704875946045,13.05,-5.04,3.68,14.46
16.095043897628784,12.66,-5.89,3.36,14.36
16.105050086975098,11.94,-6.63,3.28,14.04
16.11513590812683,11.08,-7.14,3.3,13.58
16.125342845916748,10.3,-7.43,3.09,13.07
16.158779859542847,9.6,-7.79,2.72,12.65
16.16038179397583,9.08,-8.26,2.45,12.51
16.161264896392822,8.61,-8.8,2.28,12.52
16.165210962295532,8.09,-9.28,2.17,12.5
16.175292015075684,7.7,-9.62,2.03,12.48
16.185426950454712,7.65,-9.98,1.73,12.69
16.195499897003174,7.64,-10.29,1.27,12.87
16.205935955047607,7.45,-10.49,0.67,12.88
16.215678930282593,6.95,-10.79,0.18,12.83
16.225679874420166,6.12,-11.06,0.13,12.64
16.25961208343506,5.27,-11.18,0.32,12.36
16.2613787651062,4.77,-11.16,0.3,12.14
16.262255907058716,4.48,-11.08,-0.11,11.95
16.26578187942505,4.09,-11.05,-0.57,11.79
16.27593493461609,3.6,-11.15,-0.8,11.74
16.28599977493286,3.09,-11.34,-0.76,11.77
16.296205043792725,2.62,-11.51,-0.75,11.82
16.30629587173462,2.19,-11.69,-0.89,11.92
16.316420078277588,1.83,-11.79,-1.06,11.97
16.32632088661194,1.47,-11.87,-1.2,12.02
16.361100912094116,1.03,-11.92,-1.25,12.02
16.362578868865967,0.64,-11.93,-1.23,12.01
16.363522052764893,0.33,-11.9,-1.25,11.97
16.36646795272827,-0.03,-11.86,-1.26,11.92
16.376532077789307,-0.37,-11.81,-1.16,11.87
16.38652992248535,-0.66,-11.69,-1.08,11.75
16.39703392982483,-0.94,-11.56,-1.25,11.66
16.406964778900146,-1.17,-11.51,-1.41,11.65
16.41712188720703,-1.41,-11.47,-1.37,11.63
16.427183866500854,-1.6,-11.44,-1.34,11.62
16.458966970443726,-1.84,-11.37,-1.35,11.59
16.46059799194336,-2.11,-11.24,-1.3,11.5
16.461472988128662,-2.26,-11.15,-1.25,11.44
16.467118740081787,-2.43,-11.01,-1.3,11.34
16.477153778076172,-2.64,-10.84,-1.42,11.24
16.487432956695557,-2.76,-10.71,-1.49,11.15
16.497663021087646,-2.85,-10.64,-1.53,11.12
16.50767707824707,-2.97,-10.54,-1.62,11.06
16.51767873764038,-3.08,-10.48,-1.68,11.05
16.52834391593933,-3.16,-10.44,-1.64,11.03
16.562943935394287,-3.14,-10.4,-1.66,10.98
16.564526081085205,-3.06,-10.36,-1.67,10.93
16.56541085243225,-2.75,-10.39,-1.57,10.86
16.567909955978394,-2.25,-10.43,-1.38,10.75
16.578083038330078,-1.6,-10.26,-1.23,10.45
16.58799386024475,-0.92,-9.96,-1.08,10.06
16.598259925842285,-0.15,-9.6,-0.82,9.63
16.60826301574707,0.79,-9.09,-0.48,9.13
16.61841106414795,1.74,-8.44,-0.14,8.61
16.62837791442871,2.67,-7.79,0.02,8.23
16.662652015686035,3.63,-7.25,0.03,8.1
16.664212942123413,4.56,-6.88,0.11,8.25
16.66512107849121,5.52,-6.65,0.36,8.65
16.680173873901367,6.1,-6.34,0.48,8.81
16.681049823760986,6.32,-5.88,0.48,8.64
16.68864679336548,6.37,-5.34,0.62,8.33
16.69895076751709,6.48,-4.94,0.88,8.19
16.70890474319458,6.79,-4.61,0.94,8.26
16.719285011291504,7.18,-4.23,0.87,8.37
16.729074001312256,7.6,-3.86,0.72,8.55
16.763617992401123,8.01,-3.46,0.57,8.74
16.765146732330322,8.56,-2.95,0.29,9.05
16.766052961349487,9.1,-2.4,-0.17,9.41
16.77902388572693,9.56,-2.29,-0.66,9.85
16.77999973297119,10.13,-2.51,-0.48,10.44
16.78941774368286,10.56,-2.07,0.02,10.76
16.799831867218018,10.69,-0.73,-0.17,10.71
16.809717893600464,10.89,0.37,-0.76,10.92
16.81990385055542,11.32,1.13,-0.71,11.39
16.829839944839478,11.71,2.01,-0.72,11.9
16.861844062805176,11.93,2.82,-0.96,12.29
16.863423824310303,12.02,3.54,-0.86,12.55
16.864295959472656,11.72,4.39,-0.49,12.52
16.880260944366455,11.06,5.27,-0.04,12.25
16.88111400604248,9.99,6.03,0.5,11.67
16.890130043029785,8.84,6.66,1.12,11.12
16.900359869003296,7.86,7.12,0.96,10.64
16.910356044769287,7.06,7.65,0.97,10.45
16.920490741729736,6.34,8.01,0.94,10.25
16.930532932281494,5.64,8.29,0.81,10.05
16.964900970458984,5.14,8.47,0.59,9.92
16.966481924057007,4.88,8.62,0.27,9.9
16.967402935028076,4.83,8.7,-0.3,9.95
16.970639944076538,4.75,8.83,-0.61,10.04
16.980730056762695,4.68,9.0,-0.73,10.17
16.99070692062378,4.63,9.14,-0.87,10.28
17.001298904418945,4.6,9.3,-0.94,10.41
17.01090693473816,4.6,9.51,-0.95,10.6
17.021106958389282,4.61,9.69,-0.91,10.76
17.031650066375732,4.59,9.84,-0.84,10.89
17.065924882888794,4.66,9.95,-0.79,11.01
17.067579746246338,4.92,9.9,-0.77,11.08
17.068495750427246,5.32,9.8,-0.73,11.17
17.079928874969482,5.71,9.82,-0.71,11.38
17.081371784210205,6.1,9.76,-0.71,11.53
17.09140682220459,6.55,9.56,-0.75,11.61
17.101850032806396,6.98,9.31,-0.72,11.65
17.111657857894897,7.38,9.04,-0.75,11.69
17.121819972991943,7.76,8.7,-0.76,11.68
17.132513999938965,8.08,8.3,-0.64,11.6
17.166831970214844,8.45,7.87,-0.52,11.55
17.16844081878662,8.89,7.32,-0.51,11.52
17.169353008270264,9.36,6.72,-0.58,11.53
17.17983102798462,9.79,6.28,-0.82,11.65
17.182134866714478,10.01,5.93,-1.2,11.69
17.192092895507812,9.94,5.58,-1.57,11.5
17.2025408744812,9.61,5.13,-1.86,11.05
17.212308883666992,9.2,4.49,-1.96,10.42
17.22247886657715,8.83,3.61,-1.89,9.72
17.23315191268921,8.6,2.53,-1.79,9.14
17.26898694038391,8.67,1.37,-1.69,8.93
17.270593881607056,9.06,0.18,-1.62,9.2
17.27151584625244,9.62,-0.95,-1.66,9.8
17.277638912200928,10.23,-2.04,-1.79,10.58
17.283527851104736,10.81,-3.19,-1.92,11.43
17.293086051940918,11.23,-4.37,-1.86,12.19
17.302994966506958,11.48,-5.5,-1.79,12.85
17.31307077407837,11.26,-6.43,-1.7,13.07
17.323144912719727,10.47,-7.01,-1.41,12.67
17.333154916763306,9.55,-7.34,-1.1,12.09
17.368721961975098,8.75,-7.6,-0.91,11.62
17.370208740234375,7.92,-7.77,-0.89,11.13
17.37109088897705,6.97,-7.91,-0.86,10.57
17.378437995910645,6.11,-8.13,-0.69,10.19
17.383503913879395,5.38,-8.38,-0.47,9.96
17.39339303970337,4.86,-8.66,-0.36,9.93
17.403584003448486,4.37,-8.94,-0.36,9.95
17.413614749908447,3.99,-9.22,-0.32,10.05
17.423805952072144,3.6,-9.51,-0.32,10.17
17.433722019195557,3.13,-9.71,-0.26,10.2
17.468730926513672,2.59,-9.83,-0.18,10.16
17.47054696083069,2.03,-9.84,-0.06,10.04
17.471457958221436,1.51,-9.8,0.16,9.91
17.478968858718872,1.13,-9.74,0.24,9.8
17.484132766723633,0.83,-9.71,0.26,9.74
17.494053840637207,0.61,-9.71,0.3,9.73
17.50441074371338,0.46,-9.71,0.29,9.72
17.51451301574707,0.37,-9.73,0.21,9.73
17.5244460105896,0.34,-9.83,0.04,9.83
17.535006046295166,0.32,-10.02,-0.08,10.02
17.568233013153076,0.28,-10.18,-0.18,10.18
17.569817066192627,0.14,-10.26,-0.34,10.26
17.5707528591156,0.03,-10.3,-0.45,10.3
17.57945489883423,-0.07,-10.37,-0.54,10.38
17.584784030914307,-0.25,-10.46,-0.59,10.47
17.594918966293335,-0.52,-10.5,-0.55,10.52
17.605040073394775,-0.72,-10.52,-0.46,10.55
17.61498188972473,-0.87,-10.55,-0.45,10.59
17.62523889541626,-0.99,-10.61,-0.52,10.66
17.635746955871582,-1.08,-10.67,-0.59,10.74
17.66946291923523,-1.23,-10.76,-0.66,10.85
17.671172857284546,-1.35,-10.86,-0.74,10.96
17.672080039978027,-1.41,-11.04,-0.89,11.16
17.67817187309265,-1.63,-11.16,-0.99,11.32
17.6854510307312,-2.04,-11.15,-1.0,11.37
17.69547986984253,-2.54,-10.95,-0.91,11.27
17.70573902130127,-2.98,-10.66,-0.74,11.09
17.715821743011475,-3.15,-10.34,-0.53,10.82
17.72601294517517,-3.01,-9.97,-0.42,10.42
17.736320972442627,-2.66,-9.49,-0.55,9.87
17.772236824035645,-2.06,-8.96,-0.78,9.22
17.7739999294281,-1.31,-8.54,-1.15,8.71
17.774878978729248,-0.38,-8.52,-1.54,8.66
17.777777910232544,0.38,-8.59,-1.78,8.78
17.786110877990723,0.79,-8.35,-1.91,8.6
17.796207904815674,1.2,-8.01,-1.98,8.33
17.80635094642639,1.72,-7.67,-2.08,8.13
17.816415786743164,2.29,-7.25,-2.03,7.86
17.826546907424927,3.11,-6.86,-2.16,7.83
17.836525917053223,4.07,-6.55,-2.47,8.09
17.871912002563477,4.69,-6.1,-2.65,8.13
17.873748779296875,5.11,-5.52,-2.63,7.96
17.874629020690918,5.54,-4.96,-2.91,7.98
17.876669883728027,5.8,-4.31,-3.19,7.89
17.886688947677612,6.12,-3.6,-3.17,7.77
17.89681887626648,6.69,-3.09,-3.02,7.96
17.90706205368042,7.38,-2.72,-2.74,8.32
17.917223930358887,7.95,-2.16,-2.36,8.56
17.927226066589355,8.32,-1.41,-1.91,8.65
17.937172889709473,8.71,-0.7,-1.52,8.86
17.970730781555176,9.07,-0.04,-1.18,9.14
17.972287893295288,9.19,0.79,-0.81,9.25
17.973161935806274,9.06,1.69,-0.45,9.22
17.977375030517578,8.73,2.47,-0.04,9.07
17.987473011016846,8.29,3.15,0.33,8.87
17.99739694595337,7.9,3.72,0.47,8.74
18.007805824279785,7.47,4.14,0.47,8.55
18.01778292655945,6.95,4.56,0.5,8.32
18.027904987335205,6.44,5.03,0.68,8.19
18.038732051849365,6.16,5.46,0.61,8.25
18.07369899749756,6.07,5.91,0.36,8.47
18.075329780578613,5.93,6.27,0.42,8.64
18.076252937316895,5.68,6.59,0.69,8.72
18.078145027160645,5.39,6.92,1.16,8.84
18.088193893432617,5.05,7.16,1.65,8.91
18.098186016082764,4.79,7.33,2.26,9.04
18.108301877975464,4.76,7.56,2.89,9.38
18.118456840515137,4.91,7.88,3.36,9.87
18.128551959991455,5.17,8.29,3.69,10.44
18.1386239528656,5.52,8.8,3.89,11.09
18.173589944839478,5.94,9.31,3.94,11.72
18.175178050994873,6.37,9.71,3.95,12.26
18.176097869873047,6.98,9.98,3.77,12.74
18.178602933883667,7.66,10.24,3.46,13.24
18.18880295753479,8.26,10.6,3.09,13.78
18.198765754699707,8.8,10.96,2.6,14.29
18.209177017211914,9.37,11.11,1.98,14.66
18.219050884246826,9.87,10.99,1.31,14.82
18.22917890548706,10.24,10.7,0.6,14.82
18.239929914474487,10.39,10.28,-0.18,14.61
18.2743878364563,10.15,9.81,-0.85,14.14
18.276174068450928,9.39,9.33,-1.29,13.29
18.2770938873291,8.32,8.77,-1.4,12.16
18.279316902160645,7.16,8.16,-1.28,10.93
18.28955388069153,6.21,7.32,-1.14,9.66
18.29956293106079,5.63,6.25,-1.02,8.47
18.30953288078308,5.3,5.18,-0.79,7.45
18.31974196434021,5.28,4.17,-0.59,6.75
18.329880952835083,5.51,3.13,-0.59,6.36
18.339876890182495,5.88,2.07,-0.55,6.25
18.373015880584717,6.35,1.04,-0.35,6.44
18.374603748321533,6.85,0.11,-0.26,6.85
18.37550187110901,7.41,-0.73,-0.34,7.45
18.379982948303223,7.85,-1.45,-0.51,7.99
18.390156745910645,8.03,-2.14,-0.78,8.34
18.400059938430786,7.89,-2.83,-0.91,8.43
18.41040587425232,7.36,-3.38,-0.97,8.15
18.42042088508606,6.62,-3.63,-0.98,7.61
18.43052387237549,6.07,-3.72,-0.94,7.18
18.440502882003784,5.8,-3.95,-0.97,7.08
18.475013732910156,5.85,-4.37,-1.01,7.37
18.476584911346436,6.11,-4.93,-1.0,7.91
18.47749090194702,6.19,-5.5,-0.99,8.33
18.48056983947754,6.01,-5.99,-0.92,8.53
18.490827083587646,5.55,-6.37,-0.79,8.48
18.500841856002808,4.92,-6.66,-0.57,8.29
18.511096954345703,4.26,-6.94,-0.24,8.14
18.52091073989868,3.69,-7.28,0.04,8.16
18.531161785125732,3.16,-7.57,0.28,8.2
18.54187297821045,2.8,-7.84,0.47,8.33
18.57470178604126,2.5,-8.08,0.58,8.47
18.576254844665527,2.21,-8.28,0.64,8.59
18.577173948287964,1.98,-8.53,0.66,8.78
18.581400871276855,1.75,-8.78,0.7,8.98
18.59153985977173,1.38,-8.98,0.68,9.11
18.601465940475464,0.96,-9.16,0.62,9.23
18.611872911453247,0.55,-9.28,0.66,9.31
18.621716022491455,0.1,-9.38,0.64,9.4
18.63193988800049,-0.27,-9.5,0.63,9.52
18.641851902008057,-0.56,-9.63,0.68,9.67
18.676419734954834,-0.81,-9.78,0.63,9.83
18.67798900604248,-0.94,-9.88,0.58,9.94
18.678825855255127,-1.06,-9.91,0.44,9.97
18.6944260597229,-1.26,-9.91,0.22,9.99
18.695301055908203,-1.51,-9.87,0.08,9.98
18.702109813690186,-1.68,-9.8,-0.11,9.94
18.712260961532593,-1.71,-9.8,-0.34,9.95
18.722439765930176,-1.68,-9.89,-0.46,10.04
18.732557773590088,-1.55,-10.02,-0.54,10.15
18.742884874343872,-1.42,-10.21,-0.59,10.32
18.77733588218689,-1.43,-10.44,-0.56,10.55
18.778945922851562,-1.47,-10.62,-0.52,10.73
18.779870986938477,-1.47,-10.69,-0.5,10.8
18.79400086402893,-1.43,-10.62,-0.47,10.72
18.79491901397705,-1.38,-10.47,-0.41,10.56
18.802811861038208,-1.28,-10.26,-0.28,10.34
18.813096046447754,-1.11,-9.96,-0.08,10.02
18.82316303253174,-0.97,-9.5,0.01,9.54
18.833293914794922,-0.81,-8.91,0.05,8.94
18.843177795410156,-0.57,-8.26,0.06,8.27
18.87840175628662,-0.22,-7.75,-0.07,7.75
18.88001585006714,0.2,-7.45,-0.2,7.45
18.880889892578125,0.64,-7.23,-0.32,7.26
18.89396595954895,1.02,-7.11,-0.6,7.2
18.89488387107849,1.43,-7.06,-0.75,7.24
18.903532028198242,1.93,-6.83,-0.82,7.14
18.91371774673462,2.38,-6.51,-0.95,6.99
18.92368507385254,2.62,-6.06,-1.02,6.68
18.93403387069702,2.89,-5.4,-1.06,6.21
18.94382905960083,3.1,-4.74,-1.41,5.83
18.978211879730225,3.26,-4.05,-1.73,5.47
18.979801893234253,3.54,-3.47,-2.09,5.37
18.980720043182373,3.96,-3.11,-2.37,5.56
18.994061946868896,4.33,-2.77,-2.33,5.64
18.994979858398438,4.78,-2.44,-1.95,5.71
19.004130840301514,5.31,-2.09,-1.59,5.92
19.01426601409912,5.96,-1.69,-1.35,6.34
19.02442193031311,6.56,-1.24,-1.15,6.77
19.034567832946777,7.0,-0.66,-0.84,7.08
19.044532775878906,7.37,0.0,-0.58,7.39
19.0781569480896,7.67,0.53,-0.17,7.69
19.07969379425049,7.91,1.09,0.34,7.99
19.08055090904236,7.99,1.81,0.8,8.23
19.094042778015137,7.94,2.53,1.29,8.43
19.09498691558838,7.89,3.14,1.91,8.7
19.105112075805664,7.9,3.7,2.39,9.04
19.115145921707153,7.73,4.34,2.55,9.22
19.12510108947754,7.25,5.05,2.54,9.19
19.135263919830322,6.59,5.71,2.54,9.08
19.14586091041565,5.98,6.29,2.23,8.96
19.179503917694092,5.49,6.77,1.55,8.85
19.181087970733643,4.96,7.12,1.03,8.73
19.18201494216919,4.37,7.45,0.7,8.66
19.193355083465576,3.78,7.76,0.6,8.65
19.19562292098999,3.36,7.98,0.55,8.67
19.205556869506836,3.17,8.18,0.52,8.78
19.215850830078125,3.1,8.34,0.57,8.91
19.225871086120605,3.07,8.41,0.7,8.98
19.23593282699585,3.05,8.54,0.74,9.09
19.245917797088623,3.12,8.73,0.65,9.29
19.280356884002686,3.19,8.87,0.61,9.44
19.28196382522583,3.36,8.94,0.62,9.57
19.28289294242859,3.87,8.89,0.62,9.71
19.29367208480835,4.63,8.7,0.63,9.87
19.296260833740234,5.39,8.58,0.57,10.14
19.306232929229736,6.13,8.57,0.49,10.54
19.316636085510254,6.89,8.51,0.52,10.96
19.32640504837036,7.68,8.35,0.42,11.35
19.33662700653076,8.44,8.08,0.25,11.68
19.34725594520569,9.04,7.8,0.23,11.94
19.382277011871338,9.32,7.58,0.11,12.01
19.38387894630432,9.17,7.41,-0.14,11.79
19.384777069091797,8.57,7.32,-0.54,11.28
19.390986919403076,7.66,7.14,-0.86,10.5
19.39687991142273,6.62,6.82,-0.88,9.54
19.40693187713623,5.71,6.36,-0.75,8.57
19.417294025421143,5.04,5.79,-0.56,7.69
19.427252769470215,4.69,5.14,-0.23,6.96
19.437500953674316,4.8,4.34,0.06,6.47
19.448044776916504,5.38,3.27,0.18,6.29
19.483675956726074,6.2,1.97,0.05,6.5
19.48528289794922,7.14,0.64,-0.24,7.17
19.486203908920288,7.98,-0.66,-0.52,8.02
19.491469860076904,8.5,-1.73,-0.85,8.71
19.497567892074585,8.46,-2.37,-1.16,8.86
19.508291959762573,7.95,-2.72,-1.22,8.49
19.518075942993164,7.12,-3.05,-1.21,7.83
19.527781009674072,6.22,-3.43,-1.16,7.19
19.537964820861816,5.35,-3.73,-0.95,6.59
19.54791784286499,4.67,-3.99,-0.71,6.18
19.58208990097046,4.17,-4.25,-0.6,5.98
19.583679914474487,3.95,-4.5,-0.6,6.01
19.584505081176758,3.97,-4.76,-0.78,6.24
19.591829776763916,4.1,-5.14,-1.03,6.65
19.59830379486084,4.13,-5.49,-1.08,6.95
19.60839080810547,4.21,-5.83,-0.95,7.25
19.618600845336914,4.22,-6.27,-0.81,7.6
19.628434896469116,4.05,-6.61,-0.71,7.78
19.6387357711792,3.66,-6.9,-0.53,7.82
19.649150848388672,3.18,-7.15,-0.25,7.82
19.68303680419922,2.78,-7.49,0.01,7.98
19.684629917144775,2.42,-7.83,0.27,8.19
19.68552875518799,2.01,-8.1,0.5,8.36
19.692347049713135,1.59,-8.32,0.68,8.49
19.698912858963013,1.17,-8.52,0.76,8.63
19.708892822265625,0.76,-8.68,0.86,8.75
19.71917986869812,0.37,-8.82,0.9,8.87
19.729261875152588,0.02,-8.99,0.83,9.02
19.739410877227783,-0.33,-9.16,0.78,9.19
19.749907970428467,-0.64,-9.33,0.7,9.37
19.78481388092041,-0.87,-9.53,0.59,9.58
19.786340951919556,-1.1,-9.72,0.48,9.79
19.787216901779175,-1.36,-9.86,0.38,9.96
19.789758920669556,-1.62,-9.92,0.21,10.05
19.79963779449463,-1.82,-9.95,0.0,10.11
19.809716939926147,-2.06,-9.89,-0.18,10.1
19.819697856903076,-2.34,-9.78,-0.34,10.06
19.829983949661255,-2.59,-9.68,-0.49,10.03
19.83999490737915,-2.74,-9.63,-0.6,10.03
19.849962949752808,-2.81,-9.58,-0.73,10.01
19.88453197479248,-2.9,-9.48,-0.92,9.95
19.886075973510742,-2.83,-9.46,-1.18,9.94
19.886976957321167,-2.63,-9.48,-1.27,9.91
19.890131950378418,-2.57,-9.39,-1.35,9.82
19.900187969207764,-2.47,-9.21,-1.42,9.64
19.910154819488525,-2.22,-9.03,-1.5,9.41
19.92046880722046,-1.88,-8.86,-1.67,9.2
19.930470943450928,-1.33,-8.62,-1.75,8.89
19.940638065338135,-0.64,-8.43,-1.87,8.65
19.951417922973633,0.13,-8.24,-1.92,8.46
19.98577094078064,0.37,-7.68,-1.9,7.92
19.987412929534912,0.46,-6.93,-1.74,7.15
19.98831605911255,0.65,-6.37,-1.53,6.58
19.99079179763794,0.8,-5.85,-1.3,6.04
20.000918865203857,1.14,-5.35,-1.18,5.59
20.011061906814575,1.61,-4.98,-1.24,5.37
20.021262884140015,2.06,-4.64,-1.3,5.24
20.031452894210815,2.73,-4.35,-1.41,5.32
20.041306018829346,3.61,-4.22,-1.59,5.77
20.0520179271698,4.34,-4.02,-1.63,6.13
20.085052013397217,4.9,-3.47,-1.57,6.2
20.086688995361328,5.56,-2.62,-1.67,6.36
20.08754587173462,6.01,-1.96,-1.95,6.61
20.09153699874878,6.18,-1.59,-2.0,6.68
20.101569890975952,6.45,-1.13,-1.85,6.8
20.111591815948486,6.66,-0.52,-1.93,6.95
20.12192392349243,6.77,0.18,-2.07,7.08
20.13185977935791,7.02,0.81,-2.12,7.37
20.14194107055664,7.25,1.36,-2.08,7.66
20.152658939361572,7.37,1.93,-2.02,7.88
20.187418937683105,7.48,2.45,-1.84,8.08
20.189060926437378,7.56,2.85,-1.5,8.21
20.18997097015381,7.41,3.28,-1.13,8.18
20.192084789276123,7.16,3.75,-0.68,8.11
20.202213764190674,6.96,4.12,-0.21,8.09
20.21240997314453,6.52,4.41,0.16,7.87
20.22236680984497,5.95,4.68,0.57,7.59
20.232497930526733,5.4,4.93,1.09,7.39
20.242660999298096,4.87,5.24,1.49,7.3
20.25271701812744,4.49,5.5,1.58,7.27
20.287328958511353,4.19,5.61,1.59,7.18
20.28895378112793,3.86,5.71,1.67,7.09
20.28986406326294,3.38,5.9,1.82,7.03
20.29280185699463,2.93,6.17,1.87,7.08
20.302913904190063,2.49,6.48,1.78,7.16
20.312959909439087,2.07,6.79,1.69,7.29
20.32324194908142,1.68,7.08,1.7,7.47
20.333436965942383,1.37,7.38,1.67,7.68
20.343300819396973,1.19,7.66,1.54,7.9
20.35330891609192,1.17,7.92,1.47,8.13
20.3884859085083,1.35,8.15,1.53,8.4
20.390025854110718,1.71,8.43,1.52,8.73
20.390939950942993,2.28,8.65,1.34,9.04
20.393434047698975,2.92,8.86,1.18,9.4
20.40348792076111,3.65,9.02,1.05,9.78
20.413609981536865,4.36,9.04,0.83,10.07
20.423824787139893,5.02,8.89,0.54,10.22
20.4341299533844,5.54,8.71,0.36,10.32
20.444036960601807,5.88,8.67,0.12,10.47
20.45396590232849,6.18,8.63,-0.2,10.61
20.4874210357666,6.7,8.47,-0.52,10.81
20.488998889923096,7.36,8.14,-0.7,10.99
20.48997688293457,8.06,7.78,-0.78,11.22
20.494189739227295,8.74,7.47,-0.83,11.52
20.504333972930908,9.14,7.17,-0.87,11.64
20.51424789428711,9.01,6.85,-0.95,11.35
20.524521827697754,8.43,6.41,-0.84,10.62
20.534517765045166,7.71,5.75,-0.36,9.62
20.54465675354004,7.09,4.86,0.15,8.59
20.554614067077637,6.64,3.9,0.68,7.73
20.58872699737549,6.75,2.89,1.07,7.42
20.590304851531982,7.26,1.99,1.26,7.63
20.5911808013916,7.92,1.08,1.23,8.08
20.594774961471558,8.64,0.02,1.22,8.72
20.60501003265381,9.15,-1.14,1.19,9.29
20.61489987373352,9.4,-2.24,1.2,9.73
20.625717878341675,9.33,-3.08,1.19,9.89
20.635568857192993,8.84,-3.61,1.16,9.61
20.645380973815918,7.97,-3.9,1.25,8.96
20.656092882156372,6.97,-4.1,1.39,8.2
20.689234733581543,6.07,-4.35,1.55,7.62
20.69086503982544,5.4,-4.7,1.67,7.35
20.691734790802002,4.91,-5.07,1.64,7.24
20.69546604156494,4.45,-5.38,1.44,7.12
20.70566987991333,3.94,-5.62,1.19,6.96
20.715617895126343,3.49,-5.88,0.97,6.9
20.725843906402588,3.0,-6.19,0.79,6.92
20.735898971557617,2.48,-6.46,0.67,6.95
20.74606990814209,1.96,-6.72,0.59,7.02
20.75600004196167,1.42,-6.95,0.55,7.11
20.791120052337646,0.94,-7.17,0.54,7.25
20.792675018310547,0.6,-7.4,0.57,7.44
20.79358196258545,0.34,-7.58,0.59,7.61
20.80802583694458,0.21,-7.72,0.52,7.74
20.808945894241333,0.08,-7.83,0.41,7.84
20.816277980804443,-0.04,-7.98,0.34,7.98
20.826403856277466,-0.21,-8.15,0.38,8.16
20.836830854415894,-0.49,-8.28,0.42,8.3
20.846707820892334,-0.78,-8.39,0.48,8.43
20.856618881225586,-0.97,-8.5,0.45,8.56
20.890028953552246,-1.1,-8.6,0.38,8.67
20.891636848449707,-1.25,-8.67,0.36,8.76
20.892560958862305,-1.3,-8.77,0.32,8.87
20.90767478942871,-1.25,-8.99,0.23,9.07
20.908593893051147,-1.25,-9.2,0.17,9.28
20.91695499420166,-1.28,-9.32,0.02,9.4
20.927313804626465,-1.39,-9.42,-0.12,9.52
20.937285900115967,-1.49,-9.51,-0.18,9.62
20.94753408432007,-1.56,-9.58,-0.25,9.7
20.958117961883545,-1.65,-9.6,-0.39,9.74
20.992230892181396,-1.69,-9.61,-0.56,9.77
20.993732929229736,-1.66,-9.7,-0.73,9.86
20.99467396736145,-1.71,-9.71,-0.85,9.89
20.997511863708496,-1.87,-9.56,-0.96,9.78
21.007694959640503,-1.95,-9.36,-1.06,9.61
21.017627954483032,-1.93,-9.12,-1.16,9.39
21.028111934661865,-1.75,-8.99,-1.23,9.24
21.037953853607178,-1.4,-8.83,-1.23,9.02
21.048069953918457,-0.94,-8.6,-1.32,8.75
21.05873203277588,-0.6,-8.27,-1.44,8.41
21.094157934188843,-0.25,-7.86,-1.39,7.98
21.09575891494751,0.12,-7.33,-1.23,7.43
21.09665298461914,0.51,-6.74,-1.13,6.85
21.107663869857788,1.06,-6.17,-1.06,6.34
21.10858678817749,1.79,-5.7,-0.98,6.05
21.118331909179688,2.57,-5.17,-0.96,5.85
21.128352880477905,3.38,-4.58,-1.05,5.78
21.138664960861206,4.08,-4.06,-1.19,5.87
21.148944854736328,4.58,-3.51,-1.22,5.89
21.15865707397461,4.84,-2.91,-1.19,5.77
21.193115949630737,4.98,-2.21,-1.17,5.57
21.194650888442993,5.12,-1.42,-1.3,5.46
21.195528984069824,5.2,-0.69,-1.55,5.46
21.207236766815186,5.3,-0.19,-1.83,5.61
21.208923816680908,5.33,0.17,-2.01,5.69
21.218950748443604,5.37,0.57,-2.05,5.77
21.22934889793396,5.42,1.07,-2.1,5.91
21.239192008972168,5.58,1.62,-2.3,6.24
21.249347925186157,5.73,2.15,-2.68,6.68
21.259911060333252,5.81,2.55,-3.11,7.06
21.29312491416931,5.84,2.72,-3.13,7.16
21.29471778869629,5.83,2.73,-2.76,7.0
21.295629024505615,5.67,2.79,-2.23,6.7
21.30746603012085,5.4,3.0,-1.66,6.39
21.309782028198242,5.1,3.25,-1.2,6.16
21.319602012634277,4.76,3.51,-0.85,5.97
21.329985857009888,4.44,3.68,-0.41,5.78
21.339974880218506,4.07,3.8,0.16,5.57
21.3500759601593,3.6,3.93,0.66,5.37
21.360641956329346,3.1,4.08,1.09,5.23
21.3944730758667,2.63,4.22,1.4,5.16
21.39604902267456,2.18,4.36,1.52,5.1
21.39694094657898,1.76,4.46,1.5,5.02
21.400200843811035,1.32,4.55,1.44,4.95
21.410387992858887,0.86,4.66,1.34,4.92
21.42030692100525,0.47,4.8,1.19,4.96
21.430646896362305,0.16,4.97,1.03,5.07
21.440594911575317,-0.1,5.14,0.88,5.21
21.450685024261475,-0.32,5.33,0.82,5.4
21.46073889732361,-0.37,5.46,0.78,5.52
21.495086908340454,-0.25,5.5,0.75,5.55
21.496659755706787,0.0,5.53,0.78,5.58
21.497561931610107,0.33,5.59,0.76,5.65
21.50743794441223,0.65,5.67,0.72,5.75
21.511329889297485,1.04,5.76,0.69,5.89
21.520978927612305,1.33,5.88,0.68,6.06
21.53133201599121,1.5,6.11,0.6,6.31
21.541279792785645,1.73,6.26,0.5,6.51
21.551403045654297,2.12,6.3,0.47,6.66
21.562262058258057,2.69,6.2,0.47,6.77
21.597895860671997,3.36,6.05,0.44,6.93
21.59968376159668,4.08,6.01,0.42,7.27
21.60056185722351,4.75,6.08,0.45,7.72
21.60468101501465,5.45,6.11,0.38,8.19
21.611755847930908,6.26,5.88,0.22,8.59
21.621689796447754,7.05,5.51,0.37,8.95
21.631990909576416,7.59,5.17,0.6,9.2
21.64195489883423,7.86,4.86,0.58,9.25
21.651987075805664,7.82,4.62,0.42,9.09
21.662705898284912,7.42,4.49,0.36,8.68
21.6973237991333,6.65,4.38,0.4,7.97
21.69900608062744,5.65,4.19,0.53,7.05
21.69989585876465,4.78,3.84,0.68,6.16
21.705537796020508,4.18,3.25,0.76,5.34
21.712608814239502,3.86,2.51,0.77,4.66
21.72240686416626,3.87,1.74,0.86,4.32
21.732719898223877,4.15,0.92,0.99,4.36
21.742501735687256,4.52,0.04,1.01,4.63
21.75279474258423,4.93,-0.81,0.97,5.08
21.763279914855957,5.2,-1.54,1.02,5.51
21.79610586166382,5.21,-2.05,1.11,5.7
21.797716856002808,5.17,-2.38,1.17,5.81
21.798621892929077,5.05,-2.65,1.27,5.84
21.80619192123413,4.86,-2.86,1.41,5.81
21.81307077407837,4.63,-2.99,1.47,5.7
21.8230938911438,4.31,-3.1,1.39,5.48
21.83333396911621,3.94,-3.22,1.22,5.23
21.843420028686523,3.59,-3.37,1.08,5.04
21.853511810302734,3.24,-3.67,0.99,4.99
21.86403179168701,2.95,-4.09,0.85,5.11
21.897675037384033,2.69,-4.53,0.78,5.32
21.899271965026855,2.45,-4.94,0.79,5.57
21.900134086608887,2.22,-5.32,0.79,5.81
21.904489040374756,2.02,-5.72,0.82,6.12
21.913769960403442,1.68,-6.12,0.88,6.4
21.923656940460205,1.24,-6.48,1.03,6.67
21.933913946151733,0.92,-6.83,1.24,7.0
21.94394874572754,0.54,-7.09,1.38,7.24
21.95418691635132,0.03,-7.24,1.42,7.37
21.964807987213135,-0.43,-7.33,1.44,7.48
21.997227907180786,-0.74,-7.4,1.38,7.56
21.99887704849243,-0.99,-7.49,1.25,7.65
21.99975299835205,-1.18,-7.57,1.12,7.74
22.004318952560425,-1.41,-7.66,0.96,7.84
22.014358043670654,-1.61,-7.81,0.85,8.01
22.024476051330566,-1.83,-7.96,0.82,8.2
22.034750938415527,-2.03,-8.03,0.76,8.31
22.044769763946533,-2.21,-8.06,0.65,8.38
22.05484390258789,-2.39,-8.1,0.6,8.46
22.064766883850098,-2.52,-8.09,0.56,8.49
22.100127935409546,-2.52,-8.03,0.44,8.42
22.101561069488525,-2.43,-7.98,0.24,8.34
22.10248589515686,-2.22,-8.0,0.07,8.3
22.104882955551147,-1.93,-8.13,-0.04,8.35
22.115036010742188,-1.55,-8.3,-0.18,8.44
22.125455856323242,-1.18,-8.44,-0.31,8.52
22.135307788848877,-1.0,-8.37,-0.39,8.43
22.14524507522583,-1.03,-8.09,-0.4,8.16
22.155451774597168,-1.07,-7.66,-0.4,7.74
22.165464878082275,-1.06,-7.27,-0.43,7.35
22.201642990112305,-0.94,-6.91,-0.33,6.98
22.203357934951782,-0.67,-6.48,-0.15,6.51
22.20427703857422,-0.39,-5.89,-0.07,5.9
22.20632791519165,-0.18,-5.18,-0.21,5.18
22.2157199382782,-0.04,-4.55,-0.31,4.56
22.226089000701904,0.14,-4.06,-0.3,4.07
22.23587393760681,0.5,-3.85,-0.28,3.89
22.2459819316864,0.97,-3.8,-0.39,3.94
22.256119966506958,1.28,-3.68,-0.52,3.93
22.266149044036865,1.6,-3.45,-0.56,3.84
22.29983901977539,1.9,-3.14,-0.63,3.72
22.30145502090454,2.11,-2.66,-0.73,3.47
22.302414894104004,2.32,-2.15,-1.07,3.33
22.306256771087646,2.5,-1.7,-1.53,3.38
22.316407918930054,2.57,-1.27,-1.88,3.42
22.3267240524292,2.57,-0.74,-2.13,3.41
22.336811065673828,2.5,-0.22,-2.32,3.41
22.346555948257446,2.52,0.24,-2.49,3.55
22.356826782226562,2.56,0.65,-2.61,3.71
22.366796016693115,2.51,1.05,-2.69,3.82
22.399951934814453,2.53,1.36,-2.69,3.93
22.401483058929443,2.65,1.63,-2.43,3.94
22.40242886543274,2.84,1.96,-2.15,4.06
22.40700674057007,3.05,2.28,-1.86,4.23
22.417049884796143,3.29,2.56,-1.5,4.43
22.42692804336548,3.55,2.85,-1.06,4.67
22.437551975250244,3.77,3.15,-0.62,4.95
22.447299003601074,3.96,3.44,-0.29,5.25
22.457417011260986,4.09,3.71,-0.03,5.52
22.468164920806885,4.16,3.99,0.12,5.76
22.50077486038208,3.95,4.33,0.17,5.86
22.50239396095276,3.58,4.71,0.06,5.91
22.503315925598145,3.1,5.01,-0.2,5.89
22.507637977600098,2.57,5.23,-0.43,5.84
22.517635822296143,2.04,5.4,-0.66,5.81
22.527941942214966,1.63,5.52,-0.99,5.84
22.53810405731201,1.29,5.59,-1.33,5.88
22.54813003540039,1.03,5.63,-1.49,5.91
22.55812406539917,0.95,5.59,-1.54,5.87
22.56869077682495,1.1,5.39,-1.62,5.73
22.602210998535156,1.39,5.08,-1.7,5.53
22.60379695892334,1.77,4.77,-1.73,5.37
22.60469675064087,2.07,4.54,-1.77,5.29
22.608222007751465,2.32,4.41,-1.86,5.31
22.618361949920654,2.48,4.3,-1.97,5.34
22.628331899642944,2.47,4.24,-1.99,5.29
22.638596057891846,2.47,4.12,-1.99,5.19
22.64871883392334,2.42,3.96,-1.94,5.03
22.658752918243408,2.31,3.97,-1.85,4.95
22.668776988983154,2.22,4.17,-1.8,5.05
22.70330286026001,2.15,4.33,-1.71,5.12
22.704879760742188,2.09,4.47,-1.44,5.14
22.705777883529663,2.22,4.73,-1.21,5.36
22.708909034729004,2.54,4.92,-1.25,5.67
22.719110012054443,3.18,4.95,-1.35,6.03
22.729174852371216,3.88,4.98,-1.43,6.47
22.73933982849121,4.5,5.14,-1.35,6.96
22.749366760253906,5.14,5.35,-1.37,7.54
22.759549856185913,5.63,5.63,-1.53,8.1
22.76961374282837,6.01,5.94,-1.45,8.57
22.804147958755493,6.46,6.05,-1.2,8.93
22.805722951889038,7.11,5.84,-1.09,9.26
22.80664086341858,7.85,5.57,-1.06,9.68
22.822146892547607,8.51,5.45,-1.05,10.15
22.823035955429077,9.14,5.46,-1.33,10.72
22.829747915267944,9.92,5.44,-1.51,11.41
22.84001088142395,10.61,5.37,-1.47,11.98
22.850034952163696,11.14,5.28,-1.33,12.39
22.860191822052002,11.73,5.03,-1.05,12.8
22.87030291557312,12.33,4.56,-0.65,13.16
22.903586864471436,12.67,3.93,-0.06,13.26
22.905241012573242,12.88,3.1,0.59,13.26
22.90601086616516,12.81,2.1,1.5,13.06
22.920106887817383,12.52,1.12,2.48,12.81
22.921056747436523,12.36,0.1,3.13,12.75
22.9304838180542,12.28,-0.92,3.77,12.87
22.940743923187256,12.12,-1.88,4.46,13.05
22.951063871383667,11.85,-2.95,5.08,13.22
22.960951805114746,11.7,-4.01,5.65,13.59
22.971505880355835,11.49,-5.09,6.19,14.0
23.003417015075684,11.15,-6.19,6.45,14.29
23.004973888397217,10.71,-7.13,6.6,14.46
23.005982875823975,10.46,-8.0,6.67,14.76
23.019274950027466,10.37,-8.65,6.78,15.11
23.021248817443848,10.16,-8.82,6.84,15.09
23.031260013580322,9.81,-9.79,5.94,15.07
23.041441917419434,9.25,-10.1,5.91,14.91
23.051330089569092,8.57,-10.14,5.72,14.45
23.06146788597107,7.95,-10.45,4.96,14.03
23.07152485847473,7.49,-10.64,4.36,13.72
23.10438895225525,7.05,-10.69,4.0,13.41
23.106040954589844,6.56,-10.71,3.44,13.02
23.106973886489868,6.18,-10.74,2.91,12.72
23.11160373687744,6.06,-10.81,2.71,12.68
23.1218478679657,5.99,-10.89,2.53,12.68
23.131916999816895,5.82,-10.9,1.99,12.51
23.142091751098633,5.38,-10.87,1.33,12.2
23.151939868927002,4.65,-10.87,0.8,11.84
23.162352085113525,3.78,-10.8,0.31,11.44
23.1720609664917,2.88,-10.86,-0.11,11.23
23.20636487007141,2.03,-10.76,-0.33,10.95
23.20797085762024,1.17,-10.44,-0.59,10.52
23.208884954452515,0.47,-10.02,-0.83,10.06
23.221590995788574,0.06,-9.63,-1.02,9.68
23.222518920898438,-0.09,-9.46,-1.11,9.52
23.23267388343811,-0.28,-9.75,-1.33,9.84
23.242743015289307,-0.57,-9.99,-1.56,10.12
23.252607822418213,-0.91,-9.77,-1.77,9.97
23.26286292076111,-1.34,-9.57,-2.13,9.89
23.27340793609619,-1.79,-9.35,-2.31,9.79
23.306911945343018,-2.26,-8.99,-2.31,9.55
23.308340072631836,-2.74,-8.86,-2.34,9.56
23.309310913085938,-3.19,-8.82,-2.45,9.69
23.321399927139282,-3.57,-8.85,-2.63,9.89
23.323094844818115,-3.88,-8.73,-2.77,9.94
23.333191871643066,-4.08,-8.46,-2.96,9.84
23.343371868133545,-4.24,-8.15,-3.18,9.72
23.353380918502808,-4.33,-7.83,-3.43,9.58
23.363589763641357,-4.3,-7.61,-3.71,9.49
23.374356746673584,-4.06,-7.51,-4.01,9.43
23.408161878585815,-3.73,-7.53,-4.37,9.47
23.40978479385376,-3.31,-7.63,-4.63,9.51
23.410703897476196,-2.88,-7.56,-4.73,9.37
23.42151403427124,-2.41,-7.31,-4.89,9.11
23.42374086380005,-2.03,-7.09,-5.1,8.96
23.433743953704834,-1.71,-6.96,-5.1,8.79
23.44412088394165,-1.44,-6.97,-4.9,8.64
23.45418095588684,-0.99,-7.13,-4.57,8.52
23.46412181854248,-0.44,-7.16,-4.45,8.44
23.47467279434204,-0.01,-6.95,-4.58,8.32
23.50872802734375,0.53,-6.73,-4.89,8.33
23.510310888290405,0.99,-6.5,-4.9,8.2
23.511219024658203,1.52,-6.48,-4.62,8.1
23.520665884017944,2.5,-6.77,-4.28,8.39
23.524505853652954,3.44,-6.87,-3.99,8.65
23.534532070159912,4.32,-6.76,-3.73,8.84
23.544707775115967,5.2,-6.74,-3.61,9.24
23.554680824279785,5.89,-6.65,-3.72,9.63
23.564820766448975,6.32,-6.18,-3.87,9.64
23.575356006622314,6.67,-5.64,-4.21,9.69
23.611648082733154,6.71,-5.38,-4.46,9.68
23.61317205429077,6.56,-5.19,-4.37,9.43
23.61406898498535,6.46,-4.93,-4.17,9.13
23.618701934814453,6.55,-4.59,-3.97,8.92
23.62522792816162,6.8,-4.21,-3.78,8.84
23.63525390625,7.16,-3.48,-3.45,8.67
23.64573907852173,7.74,-2.83,-3.06,8.79
23.655428886413574,8.27,-2.31,-2.63,8.98
23.665509939193726,8.63,-1.71,-2.23,9.07
23.676126956939697,8.77,-1.04,-1.78,9.0
23.709614753723145,8.67,-0.3,-1.39,8.78
23.71119785308838,8.37,0.37,-1.11,8.45
23.712158918380737,7.86,0.98,-0.82,7.96
23.715651035308838,7.24,1.58,-0.73,7.44
23.725895881652832,6.59,2.17,-0.68,6.97
23.735776901245117,6.03,2.86,-0.36,6.68
23.746381759643555,5.69,2.95,-0.63,6.44
23.756200790405273,5.44,3.05,-0.94,6.3
23.76630687713623,5.1,3.7,-1.0,6.37
23.776763916015625,4.69,4.33,-1.33,6.52
23.810866832733154,4.33,4.89,-1.73,6.75
23.812527894973755,4.0,5.4,-1.8,6.95
23.813438892364502,3.69,5.72,-1.84,7.05
23.819045066833496,3.52,5.94,-1.88,7.15
23.826494932174683,3.35,6.13,-1.81,7.21
23.836583852767944,3.28,6.32,-1.88,7.36
23.8468017578125,3.32,6.44,-1.82,7.47
23.856857776641846,3.32,6.51,-1.75,7.51
23.866991996765137,3.27,6.6,-1.68,7.55
23.877354860305786,3.35,6.69,-1.83,7.7
23.912396907806396,3.56,6.71,-1.97,7.84
23.914001941680908,3.84,6.52,-2.1,7.85
23.91487193107605,4.2,6.13,-2.17,7.74
23.9177508354187,4.68,5.74,-2.19,7.72
23.92715883255005,5.23,5.36,-2.07,7.76
23.937088012695312,5.76,5.08,-1.91,7.91
23.947197914123535,6.21,5.07,-1.86,8.22
23.957429885864258,6.87,5.15,-1.81,8.77
23.967557907104492,7.82,4.68,-1.7,9.27
23.977473735809326,8.67,4.11,-1.47,9.7
24.01150608062744,9.07,3.86,-1.33,9.94
24.013084888458252,8.86,3.87,-1.3,9.75
24.013947010040283,8.25,4.04,-1.21,9.26
24.017814874649048,7.43,4.22,-1.01,8.6
24.027809858322144,6.62,4.34,-0.83,7.95
24.03798198699951,5.98,4.2,-0.87,7.35
24.048165798187256,5.66,3.57,-0.99,6.76
24.058134078979492,5.57,2.55,-0.99,6.2
24.068206787109375,5.68,1.59,-0.93,5.97
24.07875394821167,5.84,0.6,-1.12,5.97
24.111945867538452,5.86,-0.37,-1.39,6.03
24.113528966903687,5.71,-1.18,-1.37,5.98
24.11437702178955,5.4,-1.83,-1.29,5.84
24.11823296546936,4.86,-2.32,-1.33,5.54
24.133383750915527,4.18,-2.69,-1.36,5.15
24.13848304748535,3.48,-2.97,-1.19,4.72
24.148769855499268,2.77,-3.15,-1.02,4.31
24.158730030059814,2.15,-3.3,-0.86,4.03
24.16896104812622,1.7,-3.53,-0.75,3.98
24.17951989173889,1.27,-3.75,-0.56,3.99
24.212841987609863,0.92,-4.03,-0.31,4.14
24.21437978744507,0.68,-4.39,-0.1,4.44
24.21524477005005,0.42,-4.75,0.06,4.76
24.219175815582275,0.16,-5.09,0.2,5.09
24.22913694381714,-0.09,-5.41,0.38,5.42
24.239253044128418,-0.35,-5.72,0.58,5.75
24.249969005584717,-0.68,-5.92,0.75,6.0
24.259511947631836,-0.89,-6.12,0.91,6.25
24.269529819488525,-0.97,-6.35,1.1,6.51
24.279547929763794,-0.99,-6.57,1.2,6.75
24.31393575668335,-1.03,-6.72,1.21,6.9
24.315523862838745,-1.12,-6.81,1.25,7.01
24.316438913345337,-1.21,-6.89,1.31,7.11
24.319666862487793,-1.21,-7.01,1.32,7.23
24.32990288734436,-1.19,-7.16,1.31,7.37
24.340009927749634,-1.2,-7.27,1.34,7.48
24.350210905075073,-1.21,-7.35,1.35,7.57
24.360066890716553,-1.19,-7.46,1.34,7.67
24.37031078338623,-1.29,-7.54,1.35,7.76
24.381865978240967,-1.46,-7.53,1.37,7.79
24.414175987243652,-1.67,-7.49,1.42,7.8
24.41575789451599,-1.89,-7.46,1.48,7.83
24.416676998138428,-2.12,-7.4,1.51,7.84
24.420416831970215,-2.34,-7.34,1.54,7.85
24.430559873580933,-2.54,-7.28,1.61,7.87
24.440670013427734,-2.66,-7.21,1.66,7.86
24.45081090927124,-2.71,-7.16,1.71,7.84
24.46109104156494,-2.64,-7.1,1.77,7.77
24.47086787223816,-2.45,-7.01,1.84,7.65
24.480803966522217,-2.13,-7.0,1.75,7.52
24.515501022338867,-1.59,-7.19,1.55,7.52
24.51694893836975,-0.95,-7.41,1.42,7.6
24.51787281036377,-0.36,-7.52,1.3,7.64
24.521102905273438,-0.05,-7.41,1.09,7.48
24.531187057495117,0.12,-7.21,0.96,7.27
24.541296005249023,0.41,-7.04,1.04,7.12
24.55145788192749,0.83,-6.8,1.07,6.93
24.561429977416992,1.36,-6.5,0.96,6.7
24.571632862091064,2.02,-6.1,0.9,6.48
24.58154296875,2.73,-5.61,0.86,6.29
24.6144700050354,3.57,-5.08,0.77,6.25
24.616041898727417,4.46,-4.42,0.66,6.31
24.61695098876953,5.44,-3.75,0.61,6.63
24.621802806854248,6.44,-3.13,0.56,7.18
24.63187289237976,7.34,-2.53,0.55,7.78
24.64172601699829,8.06,-1.94,0.52,8.3
24.65230393409729,8.67,-1.37,0.39,8.78
24.662193775177002,8.92,-0.89,0.15,8.96
24.672301769256592,8.5,-0.46,-0.15,8.51
24.682281970977783,7.94,-0.2,-0.49,7.95
24.715654850006104,7.42,-0.01,-0.65,7.44
24.71729278564453,6.63,0.28,-0.94,6.7
24.718224048614502,5.84,0.64,-1.54,6.07
24.722394943237305,5.0,1.0,-2.22,5.56
24.73256778717041,4.14,1.3,-2.92,5.23
24.742594957351685,3.25,1.59,-3.12,4.77
24.752820014953613,2.39,1.84,-2.87,4.16
24.762826919555664,1.53,1.97,-2.5,3.53
24.77298593521118,0.74,1.99,-2.18,3.04
24.782898902893066,0.12,1.98,-2.18,2.94
24.817070960998535,-0.2,2.01,-2.26,3.03
24.818644046783447,-0.39,2.03,-2.12,2.96
24.81953001022339,-0.63,1.94,-1.91,2.79
24.823051929473877,-0.91,1.9,-1.67,2.68
24.83321475982666,-1.19,1.97,-1.41,2.69
24.843217849731445,-1.42,2.12,-1.19,2.81
24.853328943252563,-1.61,2.26,-1.06,2.97
24.86357879638672,-1.75,2.38,-0.99,3.11
24.873945951461792,-1.83,2.5,-0.93,3.23
24.88360095024109,-1.72,2.54,-1.02,3.23
24.9185209274292,-1.4,2.55,-1.18,3.13
24.920111894607544,-1.07,2.38,-0.99,2.79
24.920992851257324,-0.73,2.2,-1.1,2.56
24.935629844665527,-0.45,2.09,-1.2,2.45
24.936563968658447,-0.25,2.03,-1.15,2.34
24.943837881088257,-0.04,1.93,-1.37,2.36
24.95409893989563,0.15,1.83,-1.58,2.42
24.964221000671387,0.33,1.75,-1.68,2.44
24.97460699081421,0.51,1.72,-1.84,2.56
24.98440408706665,0.71,1.74,-2.0,2.74
25.01909303665161,0.88,1.8,-2.04,2.85
25.02062702178955,1.08,1.85,-2.18,3.05
25.021496772766113,1.16,1.87,-2.41,3.26
25.035951852798462,1.12,1.92,-2.54,3.37
25.036895751953125,1.02,1.93,-2.59,3.38
25.04453182220459,0.91,1.89,-2.69,3.41
25.05466890335083,0.78,1.85,-2.86,3.49
25.064817905426025,0.63,1.87,-2.98,3.57
25.074970960617065,0.39,1.88,-3.11,3.65
25.084930896759033,0.13,1.85,-3.17,3.67
25.117644786834717,-0.15,1.8,-3.12,3.6
25.119226932525635,-0.34,1.71,-3.02,3.48
25.120163917541504,-0.46,1.61,-2.91,3.35
25.132723808288574,-0.48,1.49,-2.76,3.17
25.13530397415161,-0.41,1.32,-2.48,2.83
25.145176887512207,-0.31,1.14,-2.12,2.42
25.155478954315186,-0.25,1.0,-1.75,2.03
25.16546106338501,-0.18,0.88,-1.37,1.63
25.175636768341064,-0.16,0.77,-0.97,1.24
25.185571908950806,-0.09,0.64,-0.63,0.9
25.21869993209839,0.08,0.42,-0.37,0.56
25.220354080200195,0.33,0.16,-0.11,0.38
25.221234798431396,0.58,-0.04,0.02,0.58
25.235936880111694,0.82,-0.26,0.09,0.86
25.236860752105713,1.04,-0.43,0.15,1.13
25.245908737182617,1.19,-0.46,0.16,1.28
25.256207942962646,1.23,-0.43,0.13,1.3
25.26619005203247,1.24,-0.41,0.12,1.31
25.27649188041687,1.2,-0.42,0.06,1.27
25.28682589530945,1.13,-0.43,-0.07,1.21
25.320457935333252,0.98,-0.44,-0.26,1.1
25.322082042694092,0.76,-0.41,-0.38,0.94
25.32302689552307,0.48,-0.37,-0.42,0.73
25.33583974838257,0.12,-0.34,-0.52,0.63
25.33675789833069,-0.28,-0.3,-0.6,0.72
25.34658908843994,-0.63,-0.25,-0.66,0.94
25.35698890686035,-0.97,-0.22,-0.75,1.24
25.366864919662476,-1.35,-0.15,-0.75,1.55
25.37727689743042,-1.66,-0.08,-0.75,1.82
25.387662887573242,-1.9,-0.07,-0.72,2.03
25.42228603363037,-2.11,-0.09,-0.63,2.2
25.423887968063354,-2.27,-0.12,-0.46,2.31
25.42484474182129,-2.38,-0.17,-0.35,2.41
25.434494018554688,-2.4,-0.24,-0.26,2.42
25.437229871749878,-2.3,-0.36,-0.16,2.33
25.4473237991333,-2.18,-0.57,-0.08,2.25
25.457406997680664,-2.13,-0.76,0.1,2.26
25.46748685836792,-2.13,-0.86,0.29,2.31
25.477657794952393,-2.08,-0.89,0.45,2.3
25.487689971923828,-1.92,-0.86,0.61,2.19
25.521968841552734,-1.59,-0.9,0.73,1.96
25.523525953292847,-1.2,-0.97,0.81,1.74
25.524431943893433,-0.8,-1.04,0.88,1.57
25.535202980041504,-0.32,-1.16,0.93,1.52
25.53794574737549,0.25,-1.33,0.95,1.65
25.54797887802124,0.7,-1.45,0.95,1.86
25.558106899261475,1.09,-1.5,0.85,2.03
25.568140983581543,1.47,-1.52,0.73,2.23
25.578392028808594,1.76,-1.47,0.66,2.38
25.588284015655518,2.02,-1.48,0.54,2.56
25.62198781967163,2.21,-1.52,0.45,2.71
25.623523950576782,2.26,-1.49,0.41,2.73
25.624419927597046,2.22,-1.43,0.37,2.66
25.635415077209473,2.01,-1.3,0.38,2.42
25.6385760307312,1.66,-1.1,0.32,2.01
25.648727893829346,1.19,-0.92,0.23,1.52
25.658989906311035,0.62,-0.74,0.2,0.98
25.668866872787476,0.02,-0.53,0.17,0.55
25.679004907608032,-0.4,-0.4,0.02,0.56
25.689510822296143,-0.71,-0.31,-0.11,0.78
25.72218608856201,-0.98,-0.18,-0.2,1.01
25.723745822906494,-1.11,-0.09,-0.27,1.14
25.72468590736389,-1.08,-0.1,-0.41,1.15
25.734932899475098,-0.95,-0.17,-0.58,1.12
25.739556789398193,-0.87,-0.21,-0.66,1.11
25.749324798583984,-0.84,-0.17,-0.67,1.08
25.759607791900635,-0.77,-0.18,-0.66,1.03
25.769630908966064,-0.63,-0.27,-0.61,0.91
25.77971076965332,-0.41,-0.38,-0.45,0.71
25.790196895599365,-0.19,-0.44,-0.17,0.5
25.823433876037598,0.01,-0.49,0.12,0.5
25.82486391067505,0.25,-0.58,0.47,0.78
25.825811862945557,0.5,-0.75,0.83,1.22
25.833855867385864,0.77,-0.95,1.19,1.7
25.83992886543274,0.96,-1.12,1.47,2.08
25.850264072418213,1.01,-1.22,1.6,2.25
25.860265970230103,1.1,-1.2,1.71,2.36
25.870218753814697,1.17,-1.22,1.76,2.44
25.8804349899292,1.1,-1.23,1.82,2.45
25.890944004058838,0.95,-1.17,1.92,2.44
25.9246928691864,0.75,-1.08,1.89,2.3
25.926317930221558,0.47,-0.91,1.76,2.03
25.92725896835327,0.23,-0.77,1.65,1.83
25.93401002883911,0.04,-0.61,1.54,1.65
25.940656900405884,-0.09,-0.48,1.4,1.48
25.950573921203613,-0.21,-0.33,1.24,1.3
25.960985898971558,-0.31,-0.08,1.13,1.17
25.97093892097473,-0.37,0.12,1.03,1.1
25.98109006881714,-0.34,0.26,0.97,1.06
25.991665840148926,-0.2,0.28,0.94,1.0
26.026391983032227,0.01,0.24,0.96,0.98
26.027950763702393,0.18,0.25,1.02,1.06
26.028809070587158,0.33,0.26,1.08,1.15
26.032325744628906,0.55,0.21,1.15,1.29
26.041324853897095,0.79,0.08,1.18,1.42
26.051311016082764,1.05,0.0,1.23,1.61
26.06151008605957,1.28,-0.14,1.29,1.82
26.071577072143555,1.5,-0.31,1.29,2.0
26.081782817840576,1.6,-0.46,1.27,2.09
26.091693878173828,1.63,-0.57,1.27,2.14
26.125627040863037,1.61,-0.76,1.31,2.21
26.127208948135376,1.44,-0.99,1.41,2.24
26.128087043762207,1.15,-1.13,1.56,2.24
26.132659912109375,0.87,-1.23,1.76,2.31
26.14221477508545,0.64,-1.28,1.89,2.37
26.15232276916504,0.47,-1.3,1.97,2.4
26.162315845489502,0.34,-1.3,2.02,2.42
26.172237873077393,0.2,-1.23,1.94,2.3
26.1823468208313,0.0,-1.09,1.86,2.15
26.193172931671143,-0.14,-0.91,1.78,2.0
26.226428985595703,-0.4,-0.51,1.8,1.91
26.227996826171875,-0.74,-0.11,1.61,1.77
26.2288658618927,-1.07,0.31,1.15,1.6
26.23254895210266,-1.35,0.69,0.54,1.6
26.24287986755371,-1.59,0.87,0.13,1.81
26.252647876739502,-1.76,0.96,-0.26,2.02
26.262959957122803,-1.85,1.07,-0.68,2.24
26.272955894470215,-1.83,1.11,-1.15,2.42
26.283040046691895,-1.91,1.18,-1.47,2.68
26.293864965438843,-1.78,1.21,-1.61,2.68
26.327192783355713,-1.49,1.12,-1.72,2.53
26.329067945480347,-1.12,1.07,-1.69,2.29
26.32995891571045,-0.72,1.11,-1.66,2.12
26.33310604095459,-0.18,1.11,-1.67,2.01
26.343294858932495,0.38,1.04,-1.58,1.92
26.353352069854736,0.86,0.97,-1.41,1.91
26.36367893218994,1.17,0.97,-1.32,2.01
26.373580932617188,1.33,0.98,-1.26,2.07
26.383750915527344,1.37,1.01,-1.19,2.07
26.396020889282227,1.33,1.08,-1.13,2.05
26.42822790145874,1.16,1.24,-1.16,2.05
26.42958402633667,0.86,1.47,-1.36,2.17
26.430551052093506,0.46,1.7,-1.51,2.31
26.43385076522827,0.17,1.83,-1.61,2.44
26.443978786468506,-0.14,1.98,-1.71,2.61
26.454102039337158,-0.48,2.22,-1.77,2.87
26.46435785293579,-0.76,2.37,-1.86,3.1
26.474215030670166,-0.99,2.51,-1.85,3.27
26.484466075897217,-1.17,2.67,-1.83,3.44
26.495038986206055,-1.35,2.8,-1.81,3.59
26.527595043182373,-1.49,2.95,-1.77,3.74
26.529183864593506,-1.57,3.08,-1.75,3.87
26.530120849609375,-1.58,3.15,-1.79,3.95
26.534523963928223,-1.58,3.21,-1.83,4.01
26.54475688934326,-1.6,3.23,-1.85,4.05
26.554719924926758,-1.63,3.2,-1.77,4.0
26.564934968948364,-1.7,3.17,-1.66,3.96
26.574917793273926,-1.67,3.06,-1.53,3.8
26.585062980651855,-1.54,2.83,-1.23,3.44
26.595855951309204,-1.38,2.54,-0.7,2.97
26.62829303741455,-1.06,2.19,-0.07,2.43
26.62986707687378,-0.64,1.83,0.47,1.99
26.630775928497314,-0.17,1.5,1.03,1.82
26.63516902923584,0.32,1.28,1.71,2.15
26.64534592628479,0.81,1.13,2.4,2.77
26.65555691719055,1.27,1.18,2.76,3.25
26.665644884109497,1.76,1.47,2.9,3.69
26.67555284500122,2.4,1.73,3.01,4.22
26.68568181991577,3.12,1.82,3.05,4.72
26.695618867874146,3.5,1.85,2.97,4.94
26.73032808303833,3.58,1.89,2.88,4.96
26.731958866119385,3.4,2.0,2.89,4.88
26.73283290863037,3.05,2.15,2.78,4.65
26.735817909240723,2.88,2.23,2.51,4.42
26.746039867401123,2.85,2.3,2.31,4.32
26.756322860717773,3.03,2.3,2.04,4.31
26.76626205444336,3.34,2.15,1.79,4.35
26.776360988616943,3.77,1.94,1.65,4.54
26.78641176223755,4.15,1.82,1.46,4.76
26.796957969665527,4.3,1.84,1.28,4.84
26.829518795013428,4.24,2.03,1.16,4.84
26.830973863601685,4.11,2.29,1.1,4.83
26.83196783065796,4.17,2.48,1.15,4.98
26.836583852767944,4.18,2.52,1.27,5.04
26.846686840057373,4.14,2.41,1.35,4.97
26.856629848480225,4.26,2.11,1.58,5.0
26.86701488494873,4.55,1.75,1.75,5.17
26.876847743988037,4.71,1.57,1.61,5.21
26.887104034423828,4.74,1.52,1.34,5.15
26.897644996643066,4.8,1.3,1.23,5.12
26.932223796844482,4.57,0.97,1.06,4.79
26.933801889419556,4.23,0.72,0.78,4.36
26.934703826904297,3.66,0.58,0.5,3.73
26.949991941452026,2.51,0.34,0.12,2.53
26.95088291168213,2.26,-0.75,0.02,2.38
26.95732092857361,3.17,-1.43,0.96,3.6
26.967553853988647,3.09,-1.18,1.65,3.69
26.977637767791748,2.64,-0.97,0.57,2.86
26.987875938415527,2.5,-1.25,0.1,2.79
26.99783182144165,2.65,-1.89,0.68,3.32
27.032068967819214,2.2,-2.35,0.95,3.35
27.03363585472107,1.81,-2.84,1.05,3.52
27.034509897232056,1.4,-2.95,1.19,3.47
27.049870014190674,0.74,-2.54,1.23,2.91
27.0507550239563,0.25,-2.3,1.02,2.52
27.057936906814575,-0.01,-2.38,0.83,2.52
27.068346977233887,-0.23,-2.55,0.94,2.72
27.07829785346985,-0.48,-2.98,0.76,3.11
27.088412761688232,-0.72,-3.48,0.3,3.56
27.098381996154785,-1.17,-3.81,0.3,3.99
27.13192081451416,-1.66,-3.84,0.62,4.22
27.133495807647705,-2.13,-3.72,0.53,4.31
27.13438081741333,-2.43,-3.72,0.37,4.45
27.149455070495605,-2.58,-3.82,0.33,4.62
27.150417804718018,-2.69,-3.98,0.26,4.81
27.158665895462036,-2.8,-4.22,0.23,5.06
27.169359922409058,-2.87,-4.58,0.25,5.41
27.178905963897705,-2.99,-4.95,0.26,5.78
27.189112901687622,-3.08,-5.16,0.5,6.03
27.19904375076294,-3.02,-5.21,0.72,6.06
27.233437061309814,-2.79,-5.24,0.73,5.98
27.23499298095703,-2.29,-5.29,0.73,5.81
27.235833883285522,-1.68,-5.29,0.72,5.59
27.249320030212402,-1.13,-5.17,0.58,5.32
27.250284910202026,-0.73,-5.02,0.31,5.08
27.25948190689087,-0.43,-4.92,0.03,4.93
27.26992177963257,-0.34,-4.79,-0.1,4.8
27.27976393699646,-0.39,-4.67,-0.17,4.68
27.28982400894165,-0.43,-4.62,-0.35,4.65
27.300320863723755,-0.43,-4.46,-0.51,4.5
27.33324098587036,-0.27,-4.26,-0.6,4.31
27.334781885147095,-0.1,-4.06,-0.75,4.12
27.335736751556396,0.02,-3.71,-0.8,3.79
27.349487781524658,0.16,-3.25,-0.79,3.34
27.350393772125244,0.25,-2.82,-0.87,2.96
27.360043048858643,0.22,-2.32,-0.99,2.53
27.370634078979492,0.18,-1.79,-1.01,2.06
27.380385875701904,0.23,-1.32,-0.99,1.66
27.39049196243286,0.31,-0.91,-0.99,1.37
27.400993824005127,0.32,-0.4,-0.97,1.09
27.43471097946167,0.28,0.15,-0.98,1.03
27.43635606765747,0.38,0.62,-1.11,1.32
27.437274932861328,0.53,1.09,-1.33,1.79
27.449596881866455,0.6,1.61,-1.47,2.26
27.45052194595337,0.66,2.11,-1.63,2.74
27.46072483062744,0.68,2.6,-1.81,3.24
27.470993995666504,0.73,3.11,-1.94,3.73
27.4810209274292,0.81,3.59,-2.08,4.22
27.491267919540405,0.79,4.06,-2.21,4.68
27.501909732818604,0.69,4.51,-2.27,5.09
27.536752939224243,0.64,4.9,-2.26,5.43
27.538331031799316,0.71,5.17,-2.15,5.64
27.539243936538696,0.8,5.42,-2.04,5.84
27.549206733703613,0.9,5.65,-1.97,6.05
27.5514018535614,1.05,5.83,-1.91,6.22
27.56134605407715,1.34,5.95,-1.88,6.38
27.57198190689087,1.49,6.09,-1.93,6.55
27.5816388130188,1.46,6.31,-1.96,6.76
27.59176206588745,1.43,6.54,-1.85,6.94
27.602499961853027,1.38,6.77,-1.78,7.13
27.638120889663696,1.32,6.98,-1.76,7.31
27.63961386680603,1.37,7.09,-1.69,7.41
27.6405668258667,1.52,7.09,-1.59,7.42
27.646442890167236,1.65,7.01,-1.55,7.36
27.652037858963013,1.78,6.88,-1.52,7.26
27.662040948867798,1.98,6.66,-1.43,7.09
27.672416925430298,2.27,6.39,-1.37,6.91
27.682315826416016,2.57,6.15,-1.27,6.78
27.692419052124023,2.85,5.94,-1.13,6.68
27.70299792289734,3.33,5.59,-1.0,6.58
27.736241817474365,4.0,5.07,-0.85,6.51
27.737864017486572,4.69,4.64,-0.62,6.62
27.738784790039062,5.33,4.29,-0.42,6.85
27.74896001815796,6.08,3.91,-0.34,7.23
27.75282573699951,6.85,3.58,-0.05,7.72
27.76298689842224,7.61,3.31,0.24,8.3
27.773294925689697,8.35,3.13,0.44,8.92
27.78298592567444,8.97,3.0,0.46,9.46
27.793161869049072,9.19,2.93,0.31,9.65
27.80378007888794,9.03,2.88,0.09,9.47
27.83809494972229,8.55,2.86,-0.25,9.01
27.839680910110474,7.87,2.74,-0.47,8.34
27.840622901916504,7.13,2.4,-0.55,7.54
27.848301887512207,6.65,1.68,-0.32,6.86
27.853494882583618,6.57,0.66,0.0,6.6
27.86354398727417,6.64,-0.36,0.03,6.64
27.874084949493408,6.73,-1.22,-0.21,6.84
27.883655071258545,6.76,-1.94,-0.59,7.05
27.893799781799316,6.6,-2.59,-0.94,7.15
27.904270887374878,6.24,-3.17,-1.14,7.09
27.937554836273193,5.75,-3.64,-1.06,6.88
27.93914294242859,5.17,-3.93,-0.74,6.53
27.94008493423462,4.63,-4.29,-0.42,6.32
27.94885778427124,4.21,-4.77,-0.12,6.36
27.954092979431152,3.8,-5.21,0.15,6.45
27.964119911193848,3.29,-5.49,0.39,6.41
27.974647998809814,2.72,-5.66,0.57,6.3
27.98440980911255,2.1,-5.79,0.67,6.19
27.994486808776855,1.52,-5.93,0.72,6.16
28.005173921585083,0.91,-6.11,0.83,6.23
28.03877305984497,0.4,-6.34,1.03,6.43
28.040337085723877,0.03,-6.64,1.26,6.75
28.041200876235962,-0.21,-6.95,1.35,7.08
28.046370029449463,-0.38,-7.19,1.35,7.32
28.05473279953003,-0.63,-7.3,1.34,7.44
28.065001010894775,-0.94,-7.31,1.41,7.5
28.075307846069336,-1.24,-7.29,1.52,7.54
28.08498787879944,-1.48,-7.3,1.69,7.63
28.095212936401367,-1.68,-7.35,1.85,7.76
28.105748891830444,-1.71,-7.46,1.99,7.9
28.142287969589233,-1.64,-7.65,2.02,8.08
28.143907070159912,-1.58,-7.83,1.98,8.22
28.14482307434082,-1.67,-7.92,1.92,8.31
28.165409088134766,-1.8,-7.97,1.91,8.39
28.166357040405273,-1.98,-8.0,1.91,8.45
28.167963981628418,-2.22,-8.01,1.95,8.53
28.175734996795654,-2.45,-8.0,1.96,8.59
28.1857168674469,-2.68,-8.03,1.91,8.67
28.195916891098022,-2.85,-8.11,1.85,8.79
28.205927848815918,-2.98,-8.19,1.78,8.89
28.23916482925415,-3.13,-8.24,1.72,8.98
28.240798950195312,-3.29,-8.18,1.66,8.97
28.241675853729248,-3.37,-8.06,1.62,8.88
28.24605703353882,-3.42,-7.91,1.56,8.75
28.256052017211914,-3.38,-7.78,1.51,8.61
28.26623773574829,-3.19,-7.7,1.47,8.46
28.27639102935791,-2.88,-7.7,1.32,8.32
28.286335945129395,-2.6,-7.68,1.15,8.18
28.296571969985962,-2.45,-7.56,0.99,8.0
28.307053089141846,-2.32,-7.4,0.88,7.8
28.34025001525879,-2.14,-7.31,0.8,7.65
28.34180498123169,-1.91,-7.25,0.73,7.53
28.342654943466187,-1.53,-7.19,0.63,7.37
28.346694946289062,-1.01,-7.06,0.56,7.15
28.356800079345703,-0.52,-6.71,0.5,6.74
28.36687183380127,-0.04,-6.19,0.37,6.2
28.377439975738525,0.54,-5.58,0.35,5.61
28.38702893257141,1.15,-4.96,0.29,5.09
28.397170066833496,1.71,-4.35,0.24,4.68
28.407808780670166,2.39,-3.92,0.12,4.59
28.440773010253906,3.1,-3.64,0.07,4.78
28.442392826080322,3.73,-3.38,-0.04,5.03
28.44323992729187,4.26,-3.08,-0.11,5.25
28.44743776321411,4.55,-2.63,-0.22,5.26
28.45744276046753,4.69,-2.15,-0.39,5.17
28.467730045318604,4.73,-1.61,-0.62,5.03
28.47757387161255,4.56,-1.02,-0.77,4.73
28.4877028465271,4.34,-0.51,-0.86,4.45
28.497959852218628,4.11,-0.08,-0.92,4.21
28.507927894592285,3.92,0.35,-0.9,4.03
28.541568756103516,3.8,0.72,-0.85,3.95
28.543139934539795,3.77,1.02,-0.79,3.98
28.54403781890869,3.81,1.26,-0.7,4.07
28.548027992248535,3.9,1.47,-0.62,4.21
28.558193922042847,4.03,1.7,-0.48,4.4
28.56809902191162,4.11,1.98,-0.28,4.57
28.578377962112427,4.06,2.27,-0.1,4.65
28.588352918624878,4.02,2.55,0.19,4.76
28.598567008972168,4.08,2.78,0.49,4.96
28.609100818634033,4.15,3.04,0.74,5.19
28.64137887954712,4.05,3.44,0.91,5.39
28.642942905426025,3.85,3.98,1.06,5.63
28.643828868865967,3.66,4.48,1.19,5.9
28.648663997650146,3.5,4.91,1.33,6.17
28.658716917037964,3.48,5.27,1.4,6.46
28.668818950653076,3.49,5.58,1.36,6.72
28.679271936416626,3.36,5.9,1.29,6.91
28.689125061035156,3.2,6.23,1.23,7.11
28.699176788330078,3.07,6.52,1.22,7.3
28.7098970413208,3.03,6.79,1.22,7.53
28.74321174621582,2.92,7.11,1.09,7.76
28.744799852371216,2.96,7.38,0.95,8.0
28.745704889297485,3.18,7.51,0.77,8.19
28.749324798583984,3.45,7.49,0.55,8.26
28.759516954421997,3.72,7.49,0.46,8.37
28.76952075958252,4.0,7.52,0.33,8.52
28.779746055603027,4.14,7.5,0.15,8.56
28.789787769317627,4.28,7.46,0.01,8.6
28.799892902374268,4.54,7.34,-0.13,8.63
28.809879779815674,4.84,7.17,-0.29,8.65
28.843525886535645,5.08,7.01,-0.45,8.66
28.8450870513916,5.32,6.83,-0.58,8.67
28.845980882644653,5.6,6.48,-0.64,8.58
28.850064754486084,5.83,5.97,-0.68,8.37
28.86012291908264,5.89,5.52,-0.62,8.09
28.870064735412598,5.87,5.16,-0.47,7.82
28.880555868148804,5.9,4.74,-0.32,7.57
28.890408039093018,6.02,4.25,-0.21,7.37
28.900588989257812,6.16,3.72,-0.12,7.19
28.911215782165527,6.29,3.24,-0.06,7.07
28.945356845855713,6.37,2.86,-0.05,6.98
28.94697380065918,6.36,2.56,-0.11,6.85
28.94785976409912,6.18,2.3,-0.21,6.59
28.950620889663696,5.9,2.02,-0.28,6.24
28.960865020751953,5.49,1.64,-0.31,5.73
28.97081184387207,5.1,1.15,-0.33,5.23
28.981308937072754,4.79,0.61,-0.39,4.84
28.991069793701172,4.65,0.01,-0.5,4.67
29.001227855682373,4.55,-0.63,-0.63,4.63
29.01188087463379,4.43,-1.25,-0.65,4.64
29.046223878860474,4.36,-1.81,-0.59,4.75
29.04782485961914,4.36,-2.36,-0.51,4.98
29.048627853393555,4.22,-2.87,-0.43,5.12
29.064117908477783,3.84,-3.19,-0.3,5.0
29.06509494781494,3.35,-3.35,-0.08,4.73
29.071460962295532,2.92,-3.46,0.21,4.53
29.08184003829956,2.55,-3.54,0.48,4.38
29.091718912124634,2.2,-3.6,0.64,4.26
29.10184907913208,1.91,-3.69,0.71,4.21
29.11259698867798,1.71,-3.85,0.76,4.28
29.147353887557983,1.56,-4.06,0.8,4.42
29.148932933807373,1.31,-4.32,0.8,4.58
29.149703979492188,1.09,-4.59,0.86,4.79
29.163898944854736,0.94,-4.89,0.94,5.06
29.164758920669556,0.7,-5.1,1.07,5.25
29.172196865081787,0.37,-5.19,1.24,5.34
29.182435035705566,0.11,-5.24,1.4,5.42
29.192495822906494,-0.07,-5.32,1.53,5.53
29.202586889266968,-0.27,-5.38,1.64,5.63
29.2131609916687,-0.4,-5.47,1.79,5.76
29.246216773986816,-0.51,-5.61,1.96,5.96
29.247803926467896,-0.6,-5.72,2.09,6.11
29.248714923858643,-0.72,-5.81,2.23,6.26
29.26349687576294,-0.86,-5.87,2.34,6.37
29.26442575454712,-1.05,-5.94,2.4,6.49
29.272818088531494,-1.34,-5.96,2.43,6.57
29.283130884170532,-1.63,-5.96,2.45,6.64
29.293174743652344,-1.83,-6.02,2.48,6.76
29.30327081680298,-1.97,-6.13,2.5,6.9
29.31312894821167,-2.05,-6.26,2.5,7.04
29.3473379611969,-2.05,-6.42,2.51,7.19
29.348811864852905,-2.1,-6.55,2.5,7.31
29.349721908569336,-2.16,-6.61,2.58,7.41
29.363585948944092,-2.25,-6.59,2.57,7.42
29.364545822143555,-2.27,-6.49,2.55,7.33
29.3735990524292,-2.14,-6.49,2.51,7.28
29.38381576538086,-1.89,-6.58,2.46,7.27
29.39407205581665,-1.6,-6.66,2.43,7.26
29.403876781463623,-1.29,-6.71,2.46,7.26
29.414483070373535,-1.04,-6.72,2.5,7.24
29.448976039886475,-0.79,-6.71,2.54,7.21
29.450541019439697,-0.58,-6.65,2.6,7.16
29.451433897018433,-0.47,-6.49,2.71,7.04
29.460103034973145,-0.43,-6.17,2.79,6.78
29.464119911193848,-0.37,-5.69,2.87,6.38
29.474020957946777,-0.28,-5.1,2.85,5.84
29.48439073562622,-0.16,-4.47,2.47,5.1
29.494504928588867,-0.02,-3.91,1.97,4.37
29.5046329498291,0.15,-3.56,1.61,3.91
29.514517784118652,0.29,-3.48,1.36,3.74
29.548119068145752,0.41,-3.52,1.25,3.75
29.549699783325195,0.39,-3.5,1.15,3.7
29.55057692527771,0.31,-3.37,0.99,3.52
29.56309175491333,0.26,-3.26,0.81,3.36
29.56476879119873,0.3,-3.16,0.64,3.23
29.574877738952637,0.37,-3.0,0.32,3.03
29.585168838500977,0.37,-2.68,0.2,2.71
29.5952467918396,0.29,-2.23,0.06,2.24
29.605519771575928,0.26,-1.8,-0.3,1.84
29.616021871566772,0.22,-1.42,-0.53,1.53
29.649993896484375,0.19,-1.05,-0.62,1.23
29.651444911956787,0.14,-0.72,-0.6,0.94
29.652387857437134,0.24,-0.53,-0.61,0.84
29.6628360748291,0.32,-0.41,-0.56,0.76
29.665629863739014,0.43,-0.37,-0.71,0.9
29.675575733184814,0.54,-0.31,-0.78,0.99
29.68582797050476,0.69,-0.17,-0.62,0.94
29.695769786834717,0.94,0.04,-0.58,1.1
29.705888748168945,1.16,0.26,-0.68,1.36
29.71671986579895,1.27,0.52,-0.71,1.54
29.752655029296875,1.41,0.84,-0.72,1.79
29.754283905029297,1.59,1.18,-0.78,2.12
29.75516986846924,1.73,1.5,-0.78,2.41
29.760350942611694,1.91,1.75,-0.58,2.65
29.766254901885986,2.21,1.97,-0.35,2.98
29.776243925094604,2.39,2.23,-0.25,3.27
29.786519050598145,2.61,2.56,-0.18,3.66
29.796410083770752,2.98,2.89,-0.14,4.15
29.806838989257812,3.47,3.37,-0.04,4.83
29.817147970199585,3.99,3.98,-0.07,5.63
29.853611946105957,4.62,4.61,-0.48,6.54
29.855222940444946,5.08,5.3,-1.11,7.42
29.85608696937561,5.53,6.02,-1.65,8.33
29.860405921936035,5.81,6.65,-2.02,9.05
29.86693000793457,5.98,7.12,-2.17,9.54
29.876945972442627,6.13,7.47,-2.17,9.9
29.887122869491577,6.3,7.8,-2.09,10.24
29.89711093902588,6.52,8.1,-2.04,10.59
29.90727996826172,6.75,8.3,-2.04,10.89
29.917787075042725,6.88,8.38,-2.14,11.05
29.95101499557495,7.01,8.37,-2.31,11.15
29.95278787612915,7.13,8.26,-2.43,11.17
29.95373773574829,7.33,8.04,-2.45,11.15
29.96153974533081,7.4,7.81,-2.31,11.0
29.967553853988647,7.3,7.53,-2.11,10.69
29.97763681411743,7.16,7.21,-1.77,10.31
29.987875938415527,7.13,6.75,-1.34,9.9
29.997758865356445,7.31,6.2,-0.88,9.62
30.00813388824463,7.59,5.73,-0.52,9.52
30.01846981048584,7.84,5.4,-0.3,9.52
30.052295923233032,7.96,5.16,-0.27,9.49
30.053908824920654,7.7,4.96,-0.36,9.16
30.054845809936523,7.19,4.75,-0.43,8.62
30.062358856201172,6.75,4.44,-0.4,8.08
30.068237781524658,6.31,3.89,-0.21,7.41
30.078227996826172,6.01,3.06,0.16,6.74
30.08856773376465,5.87,2.06,0.6,6.24
30.098485946655273,5.92,1.05,1.0,6.09
30.1087007522583,6.13,0.12,1.29,6.26
30.119083881378174,6.36,-0.69,1.4,6.54
30.152692794799805,6.53,-1.34,1.43,6.81
30.154286861419678,6.67,-1.88,1.43,7.07
30.155123949050903,6.64,-2.33,1.43,7.18
30.15963077545166,6.48,-2.7,1.26,7.13
30.168887853622437,6.25,-3.05,1.23,7.06
30.17892074584961,6.04,-3.38,1.44,7.06
30.189234733581543,5.85,-3.74,1.65,7.13
30.199233055114746,5.61,-4.19,1.7,7.2
30.20931100845337,5.32,-4.75,1.67,7.32
30.219751834869385,5.11,-5.35,1.64,7.57
30.254390954971313,4.8,-5.88,1.7,7.77
30.255966901779175,4.46,-6.4,1.73,7.99
30.256847858428955,4.08,-6.89,1.66,8.17
30.259424924850464,3.66,-7.35,1.57,8.35
30.269516944885254,3.21,-7.97,1.4,8.7
30.27962875366211,2.65,-8.31,1.26,8.81
30.28988289833069,2.13,-8.5,1.3,8.85
30.29984188079834,1.72,-8.69,1.25,8.94
30.310019969940186,1.29,-8.84,1.11,9.0
30.32057785987854,0.84,-8.94,1.06,9.04
30.35526180267334,0.42,-9.0,0.72,9.03
30.35686993598938,-0.04,-9.04,0.39,9.04
30.357781887054443,-0.49,-9.04,0.13,9.05
30.360033988952637,-0.91,-9.02,-0.13,9.06
30.370296001434326,-1.29,-9.02,-0.34,9.11
30.38028383255005,-1.64,-9.07,-0.5,9.23
30.39049005508423,-1.98,-9.13,-0.67,9.36
30.400490760803223,-2.24,-9.06,-0.87,9.37
